"Time (s)","Linear Acceleration x (m/s^2)","Linear Acceleration y (m/s^2)","Linear Acceleration z (m/s^2)","Absolute acceleration (m/s^2)"
3.302375000E-3,-6.378682970E-1,-1.207862261E-1,8.836838543E-2,6.551902383E-1
1.331037500E-2,4.813135564E-2,1.318015033E-1,-1.607364500E-1,2.133646410E-1
2.331937500E-2,3.711129834E-1,4.856732404E-1,-1.578438324E-1,6.312828354E-1
3.332837501E-2,2.797707041E-1,6.533441958E-1,-2.841676641E-1,7.654289949E-1
4.333637501E-2,-1.894008167E-2,4.442968807E-1,-2.709196275E-1,5.207263095E-1
5.334537501E-2,1.938795646E-1,2.171474630E-1,3.141083318E-1,4.282596763E-1
6.335437500E-2,-1.917905007E-1,4.002851808E-1,8.777834290E-1,9.836236935E-1
7.336337501E-2,-1.002592832E-2,1.799433839E-1,1.375415980E0,1.387173117E0
8.337137500E-2,1.964923199E-1,-3.528794646E-3,7.160383344E-1,7.425177307E-1
9.338037501E-2,-2.590712683E-1,1.674721500E-1,-1.695663303E-1,3.520192942E-1
1.033893750E-1,-6.282612486E-1,3.118878517E-1,-4.081923705E-1,8.115462032E-1
1.133973750E-1,-2.053749713E-1,2.552619535E-1,-5.002158505E-1,5.979577249E-1
1.234063750E-1,2.540935336E-1,2.367508382E-1,-3.197105491E-1,4.720480043E-1
1.334153750E-1,3.714987534E-1,4.954301968E-1,-2.261439890E-1,6.592446492E-1
1.434233750E-1,8.995312706E-2,6.370512217E-1,-1.014392513E-1,6.513184673E-1
1.534323750E-1,-4.494851151E-1,4.894397244E-1,1.982188565E-1,6.934542722E-1
1.634413750E-1,-6.829914795E-1,1.608057395E-1,4.089998710E-1,8.121679268E-1
1.734493750E-1,-7.437235849E-1,-1.184210274E-1,5.071652663E-1,9.079454376E-1
1.834583750E-1,-7.789191453E-1,-1.625882632E-1,4.788413537E-1,9.286759501E-1
1.934673750E-1,-6.295714635E-1,9.292453587E-2,6.506500912E-1,9.101322641E-1
2.034753750E-1,-1.931813340E-1,4.811650372E-1,7.986092055E-1,9.521635804E-1
2.134843750E-1,1.309853782E-1,7.997543827E-1,8.287516022E-1,1.159134789E0
2.234933750E-1,-1.537028342E-2,9.845073938E-1,6.479527706E-1,1.178700067E0
2.335023750E-1,-6.352005780E-2,8.494618553E-1,4.801417744E-1,9.778324830E-1
2.435103750E-1,-1.531261526E-1,4.086063534E-1,2.758681262E-1,5.162460592E-1
2.535193750E-1,-6.524286680E-1,1.000449243E0,6.738319623E-1,1.371353845E0
2.635283750E-1,-9.334071144E-2,2.267900771E0,2.210258042E0,3.168174080E0
2.735363750E-1,2.011011245E0,3.277292745E0,3.974484041E0,5.530039544E0
2.835453750E-1,3.529976369E0,4.032669100E0,4.690268607E0,7.121921990E0
2.935543750E-1,3.829067296E0,4.386526511E0,4.054949330E0,7.095490488E0
3.035623750E-1,3.931455551E0,4.154009057E0,2.838202225E0,6.384945251E0
3.135713750E-1,3.756440785E0,3.819758821E0,2.345863743E0,5.848459757E0
3.235803750E-1,3.721062791E0,4.209064393E0,2.199289834E0,6.033192118E0
3.335883750E-1,3.896847636E0,5.281434388E0,2.752133549E0,7.117106839E0
3.435973750E-1,3.781712159E0,6.093751806E0,4.157034699E0,8.289517200E0
3.536063750E-1,3.587203945E0,5.991311511E0,5.279420607E0,8.754206287E0
3.636143750E-1,2.827946793E0,5.114627359E0,6.314143889E0,8.603784582E0
3.736233750E-1,2.535467312E0,3.947083112E0,6.841481465E0,8.295416096E0
3.836323750E-1,2.594722411E0,2.632101322E0,7.187592777E0,8.082204630E0
3.936413750E-1,2.496549999E0,3.086829343E0,6.472709852E0,7.593237131E0
4.036493750E-1,1.904895683E0,3.160564486E0,5.786152010E0,6.862750944E0
4.136583750E-1,2.270082951E0,2.561269906E0,5.385811281E0,6.381249352E0
4.236673750E-1,2.466316094E0,2.245120896E0,5.278607844E0,6.243955772E0
4.336753750E-1,2.763447619E0,1.712975155E0,5.116995481E0,6.062554691E0
4.436843750E-1,2.806579021E0,1.461642530E0,4.534968313E0,5.529848306E0
4.536933750E-1,2.753799421E0,1.184673373E0,3.587055134E0,4.674807674E0
4.637013750E-1,2.341411089E0,7.209985274E-1,2.999094211E0,3.872545784E0
4.737103750E-1,1.880478002E0,-3.292777634E-1,3.117422560E0,3.655536182E0
4.837193750E-1,1.497998178E0,-1.671830637E0,3.862380638E0,4.467325868E0
4.937273750E-1,1.102818201E0,-2.945513250E0,4.475519671E0,5.470149232E0
5.037363750E-1,2.902641173E-1,-3.836990858E0,4.497998415E0,5.919353161E0
5.137453750E-1,2.109894678E-2,-4.093699998E0,3.758794582E0,5.557639926E0
5.237533750E-1,-6.249284819E-2,-3.942678697E0,2.576042604E0,4.710054793E0
5.337623750E-1,-6.887923560E-1,-3.796842121E0,1.448626043E0,4.121766905E0
5.437713750E-1,-7.535463224E-1,-3.943418954E0,1.680578364E0,4.352324522E0
5.537793750E-1,-7.182599109E-2,-4.323848745E0,3.191985084E0,5.374904252E0
5.637883750E-1,5.477322983E-1,-4.347518858E0,4.388770965E0,6.201793408E0
5.737973750E-1,1.007320452E0,-4.190442765E0,5.156023892E0,6.720051148E0
5.838063750E-1,1.142386456E0,-4.357197754E0,4.767751231E0,6.559090705E0
5.938143750E-1,9.814558051E-1,-4.532749879E0,3.541549178E0,5.835378955E0
6.038233750E-1,7.740204942E-1,-4.651235518E0,2.695228447E0,5.431146836E0
6.138323750E-1,6.660275374E-1,-4.821056787E0,2.364746742E0,5.410934150E0
6.238403750E-1,3.007768263E-1,-5.546744782E0,1.802571455E0,5.840043512E0
6.338493750E-1,-5.546655612E-1,-5.889605042E0,1.540121520E0,6.112861501E0
6.438583750E-1,-1.193110905E0,-4.712283958E0,1.684607973E0,5.144612498E0
6.538663750E-1,-6.410498402E-1,-3.439032285E0,2.203825520E0,4.134577956E0
6.638753750E-1,-2.675475383E-1,-3.394133270E0,2.650294933E0,4.314601438E0
6.738843750E-1,-3.376500991E-1,-3.595564002E0,2.685955347E0,4.500715966E0
6.838923750E-1,-7.545504355E-1,-3.802856568E0,2.198326798E0,4.456871677E0
6.939013750E-1,-1.355067962E0,-4.250149269E0,2.540202388E0,5.133478953E0
7.039103750E-1,-2.025700620E0,-4.576680595E0,3.497714941E0,6.106019823E0
7.139193750E-1,-2.474140253E0,-4.620803685E0,3.817722529E0,6.484458496E0
7.239273750E-1,-2.325159922E0,-4.478640330E0,3.496180047E0,6.139044127E0
7.339363750E-1,-1.734442622E0,-4.165464630E0,2.987499182E0,5.411519025E0
7.439453750E-1,-9.008007011E-1,-3.531812979E0,2.152263018E0,4.232892737E0
7.539533750E-1,-2.368829852E-1,-2.623873120E0,9.889910388E-1,2.814058808E0
7.639623750E-1,1.441876602E-1,-1.843693753E0,7.001689911E-2,1.850648293E0
7.739713750E-1,2.140197873E-1,-1.584359214E0,-3.381468201E-1,1.634118068E0
7.839793750E-1,-1.256788838E-1,-1.933452022E0,-1.117539736E0,2.236722371E0
7.939883750E-1,-5.979093754E-1,-2.691350573E0,-3.530607283E-1,2.779481140E0
8.039973750E-1,-7.579716414E-1,-3.195227365E0,-5.475332737E-2,3.284356383E0
8.140053750E-1,-7.916229522E-1,-2.910566196E0,5.861997414E-1,3.072733737E0
8.240143750E-1,-7.790853524E-1,-2.551086980E0,1.247775940E0,2.944819784E0
8.340233750E-1,-3.726214188E-1,-2.626507291E0,1.038834971E0,2.848958646E0
8.440313750E-1,2.956510109E-1,-2.693804650E0,7.226566516E-2,2.710943625E0
8.540403750E-1,8.330142224E-1,-2.498995889E0,-1.037497201E0,2.831129385E0
8.640493750E-1,1.444799041E0,-2.291376464E0,-1.216093313E0,2.969298455E0
8.740583750E-1,1.767067162E0,-2.328336130E0,-4.711802586E-1,2.960690177E0
8.840663750E-1,1.652551197E0,-2.773046116E0,2.743864417E-1,3.239752790E0
8.940753750E-1,1.400059655E0,-2.986646658E0,1.020619798E0,3.452809011E0
9.040843750E-1,1.344857261E0,-2.583587558E0,1.027954618E0,3.088730552E0
9.140923750E-1,1.786865249E0,-1.572344356E0,-1.010610826E-1,2.382302990E0
9.241013750E-1,1.981431935E0,-6.651207805E-3,-1.806534844E0,2.681358778E0
9.341103750E-1,1.342732968E0,4.686631054E-1,-3.350391419E0,3.639738945E0
9.441183750E-1,4.237623364E-1,-7.269673651E-1,-3.635984634E0,3.732082572E0
9.541273750E-1,-8.674069601E-1,-1.411225498E0,-2.369168991E0,2.890832743E0
9.641363750E-1,-1.984813964E0,-1.169667664E0,-1.250012061E0,2.621095013E0
9.741443750E-1,-2.084784980E0,-9.434067303E-1,-1.005494220E0,2.499472604E0
9.841533750E-1,-1.897616776E0,-8.498933798E-1,-7.029731695E-1,2.194866616E0
9.941623750E-1,-1.707166530E0,-7.133883762E-1,-3.509741494E-1,1.883221546E0
1.004170375E0,-8.499536061E-1,-5.506738132E-1,-2.414492221E-1,1.041134241E0
1.014179375E0,-1.861893797E-1,-4.407683784E-1,-1.320548339E-1,4.963685401E-1
1.024188375E0,2.112879682E-1,-4.093080193E-1,-4.180115998E-1,6.220203837E-1
1.034197375E0,5.365925485E-1,-2.611021525E-1,-7.917140226E-1,9.914217018E-1
1.044205375E0,7.409024495E-1,-8.705802441E-2,-1.153743210E0,1.373913729E0
1.054214375E0,7.932291824E-1,-4.477797747E-3,-1.637500903E0,1.819516912E0
1.064223375E0,5.540885872E-1,-5.761612415E-2,-1.948778890E0,2.026838164E0
1.074231375E0,1.570433486E-1,-2.025838029E-1,-1.884573831E0,1.901925691E0
1.084240375E0,-1.789131045E-1,-2.722200483E-1,-1.619655347E0,1.652088707E0
1.094249375E0,-3.243444675E-1,-3.858852428E-1,-1.294031947E0,1.388749594E0
1.104257375E0,-3.894549680E-1,-5.368030483E-1,-1.149115724E0,1.326762839E0
1.114266375E0,-4.386259586E-1,-6.319354928E-1,-1.016685791E0,1.274905956E0
1.124275375E0,-4.744255364E-1,-6.730911201E-1,-7.490082984E-1,1.113168755E0
1.134283375E0,-4.004728764E-1,-7.513368058E-1,-5.670663361E-1,1.022961265E0
1.144292875E0,-2.938173240E-1,-8.846889907E-1,-4.393621230E-1,1.030554368E0
1.154301875E0,-1.978159833E-1,-9.986757821E-1,-3.131777474E-1,1.065159510E0
1.164309875E0,1.398653984E-3,-1.122496421E0,-2.677535065E-1,1.153989649E0
1.174318875E0,2.287997943E-1,-1.225269422E0,-4.010581827E-1,1.309382361E0
1.184327875E0,2.846962523E-1,-1.142790352E0,-6.503271787E-1,1.345342776E0
1.194336875E0,3.471462697E-1,-1.160990980E0,-8.973287706E-1,1.507849300E0
1.204344875E0,3.338947248E-1,-1.215067785E0,-1.166711165E0,1.717291574E0
1.214353875E0,1.054165274E-1,-1.239100426E0,-1.227926835E0,1.747651802E0
1.224362875E0,5.575904846E-3,-1.361518317E0,-1.263394876E0,1.857398673E0
1.234370875E0,-1.876219475E-1,-1.393403184E0,-1.293093177E0,1.910200092E0
1.244379875E0,-4.331102800E-1,-1.321363733E0,-1.075825553E0,1.758120375E0
1.254388875E0,-5.195303732E-1,-1.393975627E0,-8.192663951E-1,1.698316014E0
1.264396875E0,-5.259547091E-1,-1.507175383E0,-8.026521166E-1,1.786744641E0
1.274405875E0,-4.241570234E-1,-1.567443804E0,-7.400212741E-1,1.784494535E0
1.284414875E0,-3.260080004E-1,-1.548445031E0,-7.212901573E-1,1.739029247E0
1.294422875E0,-1.857578552E-1,-1.445197236E0,-9.797771426E-1,1.755865678E0
1.304431875E0,-2.774971604E-2,-1.222368034E0,-1.310790067E0,1.792518970E0
1.314440875E0,7.928765953E-2,-1.064869772E0,-1.586766074E0,1.912605746E0
1.324449875E0,1.679098141E-1,-1.002747783E0,-1.786016818E0,2.055128438E0
1.334457875E0,2.216047955E-1,-9.289956826E-1,-1.882660914E0,2.111055135E0
1.344466875E0,2.018031996E-1,-8.174091733E-1,-1.915116469E0,2.092021362E0
1.354475875E0,1.112847930E-1,-6.232336664E-1,-1.834792976E0,1.940945587E0
1.364483875E0,-4.693443060E-2,-2.856212819E-1,-1.508587486E0,1.536104996E0
1.374492875E0,-2.371677446E-1,-2.199722528E-2,-1.151438384E0,1.175815789E0
1.384501875E0,-5.003819114E-1,2.154207802E-1,-7.565210934E-1,9.322619452E-1
1.394509875E0,-6.612674654E-1,4.260953754E-1,-3.750999074E-1,8.715112565E-1
1.404518875E0,-6.812468165E-1,5.450844598E-1,-1.562539744E-1,8.863574887E-1
1.414527875E0,-6.978628492E-1,6.862736678E-1,-1.564339956E-1,9.911890327E-1
1.424535875E0,-7.384226453E-1,9.145676780E-1,-3.340443405E-1,1.222001498E0
1.434544875E0,-7.394166720E-1,1.108737338E0,-6.269828280E-1,1.472801061E0
1.444553875E0,-6.280184430E-1,1.254445859E0,-9.250224265E-1,1.680389260E0
1.454561875E0,-5.199034256E-1,1.457473465E0,-9.570348358E-1,1.819462599E0
1.464570875E0,-4.606793171E-1,1.589422903E0,-7.446896911E-1,1.814677198E0
1.474579875E0,-5.996612012E-1,1.681947489E0,-4.815336310E-1,1.849436550E0
1.484588875E0,-8.610504520E-1,1.784215291E0,-3.352876047E-1,2.009290886E0
1.494596875E0,-1.137916698E0,1.830883673E0,-3.112484586E-1,2.178041561E0
1.504605875E0,-1.430418983E0,1.924856615E0,-2.851874916E-1,2.415057631E0
1.514614875E0,-1.481243566E0,2.124684041E0,-2.805751348E-1,2.605203866E0
1.524622875E0,-1.676706630E0,2.271588902E0,-2.361912596E-1,2.833239766E0
1.534631875E0,-2.110178268E0,2.354390738E0,-2.671768979E-1,3.172915310E0
1.544640875E0,-2.524578043E0,2.268669972E0,-1.709702468E-1,3.398468561E0
1.554648875E0,-2.618842176E0,1.892073031E0,1.084774717E-1,3.232652480E0
1.564657875E0,-2.039656169E0,1.337409078E0,4.640140207E-1,2.482774525E0
1.574666875E0,-8.697382450E-1,9.063821608E-1,7.747747120E-1,1.475889254E0
1.584674875E0,5.598135960E-1,6.470891368E-1,9.950160098E-1,1.312315691E0
1.594683875E0,2.002934486E0,3.931732124E-1,1.129068106E0,2.332622241E0
1.604692875E0,3.177792723E0,8.716385901E-2,1.312812181E0,3.439395288E0
1.614700875E0,3.830194055E0,-2.404205507E-1,1.639524186E0,4.173275464E0
1.624709875E0,3.919704401E0,-4.849832690E-1,1.978290811E0,4.417343760E0
1.634718875E0,3.513589547E0,-5.876814258E-1,2.230537355E0,4.203091464E0
1.644727875E0,2.687911241E0,-6.480159205E-1,2.352006243E0,3.629975874E0
1.654735875E0,1.538049851E0,-7.325292367E-1,2.424034585E0,2.962792618E0
1.664744875E0,4.979173100E-1,-8.132833779E-1,2.461736262E0,2.639980478E0
1.674753875E0,-3.141328901E-1,-7.581803870E-1,2.370745400E0,2.508774746E0
1.684761875E0,-9.651262128E-1,-5.557813561E-1,2.053821634E0,2.336352890E0
1.694770875E0,-1.236134133E0,-2.517735046E-1,1.528324177E0,1.981714481E0
1.704779875E0,-1.117388878E0,8.393034875E-2,9.293460039E-1,1.455776838E0
1.714787875E0,-8.385942203E-1,2.579241908E-1,4.515477935E-1,9.867424002E-1
1.724796875E0,-3.700568300E-1,3.027004141E-1,2.653057889E-1,5.467693844E-1
1.734805875E0,-5.302547514E-2,2.728164643E-1,3.338678277E-1,4.344056291E-1
1.744813875E0,-7.734462976E-2,1.536028469E-1,4.557390412E-1,4.871078935E-1
1.754822875E0,-9.345604777E-3,6.205065250E-2,4.973419440E-1,5.012849819E-1
1.764831875E0,1.141990453E-1,1.006598175E-2,5.867891407E-1,5.978831337E-1
1.774840875E0,1.614299297E-1,-2.059734339E-1,6.842785247E-1,7.326129791E-1
1.784848875E0,2.174333918E-1,-5.158249927E-1,7.917527604E-1,9.696520698E-1
1.794857875E0,1.755392611E-1,-7.689620680E-1,9.811686337E-1,1.258891807E0
1.804866875E0,2.385488570E-1,-9.140116078E-1,1.143717721E0,1.483378913E0
1.814874875E0,4.719966030E-1,-1.008537111E0,1.147327791E0,1.598839879E0
1.824883875E0,7.134831011E-1,-1.008382160E0,1.009395483E0,1.595234138E0
1.834892875E0,8.849415904E-1,-9.840285069E-1,8.670369045E-1,1.582146237E0
1.844900875E0,9.213141954E-1,-9.957293701E-1,7.601134765E-1,1.555014251E0
1.854909875E0,7.824574417E-1,-9.601128101E-1,6.060791051E-1,1.378908314E0
1.864918875E0,5.176528323E-1,-9.759570104E-1,3.263097532E-1,1.151926472E0
1.874926875E0,2.400843358E-1,-1.037818798E0,1.159315753E-1,1.071516904E0
1.884935875E0,-1.151772845E-1,-1.077221430E0,8.393678069E-2,1.086608117E0
1.894944875E0,-3.819214153E-1,-1.126391251E0,1.493846655E-2,1.189472310E0
1.904953875E0,-4.606196755E-1,-1.103572492E0,-5.256179094E-2,1.196998527E0
1.914961875E0,-3.551996398E-1,-9.879613441E-1,-1.212946415E-2,1.049943582E0
1.924970875E0,-1.671140081E-1,-8.420329678E-1,2.257602654E-2,8.587527511E-1
1.934979875E0,1.087342376E-1,-7.314638740E-1,5.996085763E-2,7.419284587E-1
1.944987875E0,3.955050820E-1,-6.320360649E-1,1.302326223E-1,7.568714508E-1
1.954996875E0,6.583040965E-1,-6.023029733E-1,2.760118946E-1,9.339784371E-1
1.965005875E0,7.629692566E-1,-5.770418322E-1,4.631871879E-1,1.062846054E0
1.975013875E0,5.815079355E-1,-5.440518415E-1,7.079867184E-1,1.065546376E0
1.985022875E0,1.698399800E-1,-5.237263352E-1,8.957407399E-1,1.051421117E0
1.995031875E0,-1.491729963E-1,-5.877679646E-1,1.044079850E0,1.207404860E0
2.005039875E0,-4.172847909E-1,-5.657841879E-1,1.275582958E0,1.456485574E0
2.015048875E0,-6.259029204E-1,-3.963751477E-1,1.395892929E0,1.580311612E0
2.025057875E0,-7.364649975E-1,-2.853219044E-1,1.243486422E0,1.473108198E0
2.035066875E0,-8.706849092E-1,-1.382848960E-1,1.038851489E0,1.362507740E0
2.045074875E0,-1.064002045E0,6.297626674E-2,8.534549189E-1,1.365449252E0
2.055083875E0,-1.261706346E0,2.256960922E-1,6.539278941E-1,1.438910463E0
2.065092875E0,-1.441946769E0,3.250543195E-1,5.649088597E-1,1.582400965E0
2.075100875E0,-1.626235219E0,4.587339485E-1,5.176154832E-1,1.767202198E0
2.085109875E0,-1.575348655E0,6.935861957E-1,3.422224025E-1,1.754964777E0
2.095118875E0,-1.462242454E0,1.104195220E0,1.726988299E-1,1.840441514E0
2.105126875E0,-1.352538164E0,1.475577614E0,1.145492935E-1,2.004946463E0
2.115135875E0,-1.185714762E0,1.666088671E0,1.908731456E-1,2.053826554E0
2.125144875E0,-1.178839021E0,1.903104388E0,3.718595266E-1,2.269305457E0
2.135152875E0,-1.183425577E0,2.087592813E0,4.287168284E-1,2.437691114E0
2.145163875E0,-1.188841853E0,2.169522244E0,2.868013962E-1,2.490467177E0
2.155172875E0,-1.289101721E0,2.116354097E0,2.540274601E-1,2.491037507E0
2.165180875E0,-1.537693756E0,2.142554301E0,2.183220224E-1,2.646262558E0
2.175189875E0,-1.911327912E0,2.291238470E0,1.644611263E-1,2.988309819E0
2.185198875E0,-2.109340362E0,2.111019682E0,1.879514381E-2,2.984304629E0
2.195207875E0,-2.126026561E0,1.513621938E0,-3.558207603E-1,2.633941671E0
2.205215875E0,-1.721344274E0,7.349201632E-1,-7.466682427E-1,2.015104767E0
2.215224875E0,-7.717049968E-1,1.857601941E-1,-9.704695447E-1,1.253733061E0
2.225233875E0,1.174351868E0,-2.682971513E-1,-1.075471358E0,1.614844981E0
2.235241875E0,2.963180028E0,-2.702185464E-1,-8.655456452E-1,3.098809966E0
2.245250875E0,2.472498647E0,-5.256477302E-1,-6.350299855E-1,2.606303547E0
2.255259875E0,2.691820105E0,-1.746133545E0,-6.671706681E-1,3.277193088E0
2.265267875E0,2.949421529E0,-2.531505239E0,-6.039964731E-1,3.933499443E0
2.275276875E0,2.581132897E0,-2.538756956E0,-2.850364141E-1,3.631635950E0
2.285285875E0,1.969992442E0,-2.287578698E0,1.316491833E-1,3.021790533E0
2.295293875E0,1.407656357E0,-2.092797419E0,4.356408088E-1,2.559507838E0
2.305302875E0,8.627800584E-1,-1.940307298E0,5.604135934E-1,2.196188798E0
2.315311875E0,3.567052978E-1,-1.752193599E0,4.734771911E-1,1.849757208E0
2.325320875E0,-4.323840559E-2,-1.567668337E0,1.303942247E-1,1.573676024E0
2.335328875E0,-3.215524220E-1,-1.403705978E0,-2.577322559E-1,1.462946462E0
2.345337875E0,-5.441804802E-1,-1.230133721E0,-6.477872944E-1,1.492980155E0
2.355346875E0,-7.369696122E-1,-1.234541352E0,-1.037442164E0,1.772992612E0
2.365354875E0,-9.497258162E-1,-1.306101916E0,-1.321516200E0,2.086692696E0
2.375363875E0,-1.038782419E0,-1.334811160E0,-1.473499514E0,2.243209880E0
2.385372875E0,-8.845515811E-1,-1.277260525E0,-1.361784950E0,2.065982623E0
2.395380875E0,-6.242616069E-1,-1.067775838E0,-8.675024159E-1,1.510764123E0
2.405389875E0,-4.847294998E-1,-8.450150478E-1,-1.639627974E-1,9.878749505E-1
2.415398875E0,-3.782996500E-1,-6.995035779E-1,4.306661439E-1,9.043722730E-1
2.425406875E0,-3.410148793E-1,-5.811916012E-1,8.530524842E-1,1.087094001E0
2.435415875E0,-2.439879370E-1,-5.183276010E-1,1.073350939E0,1.216665876E0
2.445424875E0,5.350962460E-2,-4.237828016E-1,1.134764537E0,1.212495648E0
2.455433875E0,4.641303438E-1,-3.550908816E-1,1.147380489E0,1.287629022E0
2.465441875E0,8.435491508E-1,-2.780175626E-1,1.106316590E0,1.418733708E0
2.475450875E0,1.218705338E0,-3.197117186E-1,1.103893504E0,1.675123623E0
2.485459875E0,1.773658143E0,-3.291959023E-1,1.357215936E0,2.257491583E0
2.495467875E0,1.754699716E0,-4.865760505E-2,-2.282367074E-1,1.770149895E0
2.505476875E0,1.215340265E0,-2.431383365E-1,-6.678642210E-1,1.407910092E0
2.515485875E0,1.087548782E0,-5.436711878E-1,-9.025411979E-1,1.514239521E0
2.525493875E0,8.641646791E-1,-6.096125776E-1,-1.041989032E0,1.484637744E0
2.535502875E0,6.857333851E-1,-6.727718621E-1,-9.369717964E-1,1.341927122E0
2.545511875E0,6.329914999E-1,-7.740696108E-1,-7.825795754E-1,1.269760920E0
2.555519875E0,6.547384644E-1,-8.463832963E-1,-6.852259199E-1,1.270661915E0
2.565528875E0,6.654417926E-1,-9.318912238E-1,-6.879589085E-1,1.335859832E0
2.575537875E0,5.314195168E-1,-1.006453748E0,-7.382144114E-1,1.356582606E0
2.585546875E0,3.357348436E-1,-1.071060219E0,-6.186611438E-1,1.281651079E0
2.595554875E0,2.356474686E-1,-1.119015573E0,-3.739867437E-1,1.203159036E0
2.605563875E0,2.237711889E-1,-1.091804971E0,-5.752841592E-2,1.115984389E0
2.615572875E0,2.955293888E-1,-1.015346194E0,2.023452365E-1,1.076665736E0
2.625580875E0,3.192761010E-1,-9.389862353E-1,3.411569667E-1,1.048818599E0
2.635589875E0,1.954402596E-1,-8.441297793E-1,3.383784064E-1,9.301891879E-1
2.645598875E0,-9.479506016E-3,-7.779708731E-1,2.839711245E-1,8.282319361E-1
2.655606875E0,-3.480590200E-1,-6.879132271E-1,2.474540933E-1,8.096932862E-1
2.665615875E0,-7.366784209E-1,-5.437910557E-1,3.206483694E-1,9.701645143E-1
2.675624875E0,-1.051790135E0,-3.649966496E-1,2.562648240E-1,1.142434550E0
2.685632875E0,-1.296987861E0,-9.747074604E-2,1.676151510E-1,1.311401120E0
2.695641875E0,-1.599626294E0,1.996169257E-1,9.254157979E-2,1.614687320E0
2.705650875E0,-1.922860960E0,4.469278353E-1,2.870632052E-2,1.974325914E0
2.715659875E0,-2.206018810E0,6.255631971E-1,5.293367386E-2,2.293610751E0
2.725667875E0,-2.476046737E0,7.586505032E-1,7.795862395E-2,2.590836849E0
2.735676875E0,-2.650863867E0,8.141043270E-1,7.878889203E-2,2.774176056E0
2.745685875E0,-2.463711451E0,8.172536373E-1,2.381547729E-1,2.606625274E0
2.755693875E0,-1.960441015E0,9.089198524E-1,4.754616630E-1,2.212584025E0
2.765702875E0,-1.383470519E0,1.228614029E0,5.620659069E-1,1.933753137E0
2.775711875E0,-8.176231813E-1,1.639231825E0,4.122088595E-1,1.877632761E0
2.785719875E0,-3.854408544E-1,1.916570526E0,8.606752435E-2,1.956837973E0
2.795728875E0,-4.017885000E-1,2.058464323E0,-2.407918489E-1,2.111087417E0
2.805737875E0,-1.237372574E0,2.076205945E0,-3.773816006E-1,2.446249964E0
2.815745875E0,-2.440229618E0,1.899917071E0,-2.657863204E-1,3.104037344E0
2.825754875E0,-3.268048005E0,1.537216623E0,4.456515709E-2,3.611808239E0
2.835763875E0,-3.660662223E0,1.212080442E0,5.480209315E-1,3.894857360E0
2.845772875E0,-3.211355740E0,6.595314270E-1,1.093469088E0,3.455931429E0
2.855780875E0,-1.978677896E0,1.493671238E-1,1.292482581E0,2.368119080E0
2.865789875E0,-3.023893422E-1,-1.731360555E-2,1.379885591E0,1.412736111E0
2.875798875E0,1.364857078E0,-9.083649516E-2,1.315870274E0,1.898051814E0
2.885806875E0,2.883380737E0,-2.545784140E-1,1.163068496E0,3.119522875E0
2.895815875E0,3.992972937E0,-3.681155545E-1,1.018194373E0,4.137156236E0
2.905824875E0,4.341507921E0,-4.382277632E-1,1.016181761E0,4.480330341E0
2.915832875E0,3.725452881E0,-4.622077793E-1,1.195222335E0,3.939694357E0
2.925841875E0,2.308918111E0,-4.577767593E-1,1.469393599E0,2.774847735E0
2.935850875E0,8.137014538E-1,-5.568367785E-1,1.714968470E0,1.978204769E0
2.945858875E0,-4.565517676E-1,-6.423049450E-1,1.991456401E0,2.141703471E0
2.955867875E0,-1.351903741E0,-5.342934233E-1,2.137269588E0,2.584769714E0
2.965876875E0,-1.761734501E0,-2.429547340E-1,2.035887054E0,2.703252033E0
2.975884875E0,-1.734662477E0,7.871521711E-3,1.642509774E0,2.388923236E0
2.985893875E0,-1.513437166E0,3.980725944E-2,9.759786451E-1,1.801280375E0
2.995902875E0,-1.103818660E0,-4.945282638E-2,2.570833977E-1,1.134439548E0
3.005911875E0,-4.712189233E-1,-1.794124568E-1,-1.989281237E-1,5.420410517E-1
3.015919875E0,8.821869671E-2,-2.234706420E-1,-3.459749993E-1,4.212129704E-1
3.025928875E0,4.909152693E-1,-2.636369205E-1,-3.117641465E-1,6.385132030E-1
3.035937875E0,7.068435878E-1,-3.913143826E-1,-6.039000671E-2,8.101862480E-1
3.045945875E0,6.539064056E-1,-5.676184595E-1,2.854084615E-1,9.117248997E-1
3.055954875E0,5.165933168E-1,-7.045982569E-1,6.342404652E-1,1.079624160E0
3.065963875E0,5.010034704E-1,-8.244872278E-1,9.530025959E-1,1.356096462E0
3.075971875E0,5.389963388E-1,-8.467218500E-1,1.210411062E0,1.572434382E0
3.085980875E0,6.159819496E-1,-7.849483556E-1,1.347895474E0,1.677021137E0
3.095989875E0,8.539378989E-1,-7.774604112E-1,1.327314445E0,1.759380079E0
3.105998875E0,1.247604616E0,-7.741994190E-1,1.093251572E0,1.830601272E0
3.116006875E0,1.657175176E0,-6.945433849E-1,7.050736356E-1,1.930219912E0
3.126015875E0,1.867422924E0,-6.237376964E-1,3.330422373E-1,1.996806005E0
3.136024875E0,1.834317158E0,-6.442807192E-1,8.643120289E-2,1.946095433E0
3.146031250E0,1.570114812E0,-7.078025311E-1,3.793092448E-2,1.722696637E0
3.156040250E0,1.319124835E0,-7.707226646E-1,1.281148338E-1,1.533139643E0
3.166049250E0,1.138301445E0,-8.188645452E-1,2.777544379E-1,1.429481322E0
3.176057250E0,1.006647876E0,-8.236738801E-1,4.207855189E-1,1.367054885E0
3.186066250E0,9.854891413E-1,-8.724952072E-1,5.565332349E-1,1.429043728E0
3.196075250E0,9.388757229E-1,-9.549772006E-1,7.400388157E-1,1.530074026E0
3.206083250E0,7.686474878E-1,-1.031320787E0,9.195179307E-1,1.581124521E0
3.216092250E0,5.374322087E-1,-1.109104543E0,1.024880079E0,1.602911552E0
3.226101250E0,2.753260893E-1,-1.099613927E0,1.096078262E0,1.576814130E0
3.236110250E0,-3.859103858E-2,-1.010701166E0,1.219466060E0,1.584330643E0
3.246118250E0,-2.120679867E-1,-9.708073676E-1,1.416374556E0,1.730189775E0
3.256127250E0,-3.877434880E-1,-8.775817001E-1,1.678229245E0,1.933118737E0
3.266136250E0,-6.163117325E-1,-5.826475579E-1,1.839048725E0,2.025195927E0
3.276144250E0,-6.044179112E-1,-2.345154476E-1,1.681626477E0,1.802272486E0
3.286153250E0,-5.299571282E-1,4.234202743E-2,1.397123183E0,1.494858051E0
3.296162250E0,-6.651008999E-1,3.125202280E-1,1.016807486E0,1.254561901E0
3.306170250E0,-8.977376372E-1,4.329044580E-1,6.301311151E-1,1.179154085E0
3.316179250E0,-1.135536881E0,5.339203709E-1,2.050396335E-1,1.271438643E0
3.326188250E0,-1.436162703E0,7.710542017E-1,-1.837779880E-1,1.640384784E0
3.336196250E0,-1.867164477E0,1.203782074E0,-5.288315392E-1,2.283649987E0
3.346205250E0,-2.357395037E0,1.696435720E0,-8.548616859E-1,3.027539268E0
3.356214250E0,-2.854372700E0,2.112856293E0,-1.018068073E0,3.694329144E0
3.366223250E0,-3.435423968E0,2.565369973E0,-9.770288050E-1,4.397481805E0
3.376231250E0,-3.948364529E0,2.985308231E0,-6.927723364E-1,4.998157780E0
3.386240250E0,-4.316561944E0,3.213990496E0,-2.831877438E-1,5.389122120E0
3.396249250E0,-4.917341133E0,3.433090929E0,1.027624031E-1,5.998076130E0
3.406257250E0,-5.352369300E0,3.241870605E0,1.748937285E-1,6.260045524E0
3.416266250E0,-5.530622839E0,2.722296377E0,6.647692166E-2,6.164665906E0
3.426275250E0,-5.306472166E0,2.176568724E0,-7.438827753E-2,5.735994410E0
3.436283250E0,-4.352004842E0,1.893225517E0,-3.283878902E-1,4.757319372E0
3.446292250E0,-2.616039020E0,1.768336008E0,-8.794376063E-1,3.277816788E0
3.456301250E0,-3.407155019E-1,1.561092559E0,-1.737606550E0,2.360587544E0
3.466309250E0,2.111255325E0,1.233695260E0,-2.671309826E0,3.621505106E0
3.476318250E0,4.319983150E0,8.827716887E-1,-3.430043360E0,5.586299108E0
3.486327250E0,5.989716391E0,6.014808547E-1,-3.664130791E0,7.047292822E0
3.496336250E0,6.990710594E0,3.254718107E-1,-3.304026507E0,7.739028212E0
3.506344250E0,7.203566201E0,-1.528748685E-1,-2.536925608E0,7.638764840E0
3.516353250E0,6.418486868E0,-7.056384766E-1,-1.093638657E0,6.549117867E0
3.526362250E0,5.164118777E0,-1.190822890E0,4.751635281E-1,5.320898634E0
3.536370250E0,3.677319771E0,-1.524174408E0,1.810660493E0,4.373131572E0
3.546379250E0,2.346665397E0,-1.639738194E0,2.845071534E0,4.036088684E0
3.556388250E0,1.481699649E0,-1.607098451E0,3.360970201E0,4.009279234E0
3.566396250E0,8.677753347E-1,-1.525131013E0,3.307559395E0,3.744196548E0
3.576405250E0,3.991093057E-1,-1.471772831E0,2.723568732E0,3.121414766E0
3.586414250E0,2.618143433E-1,-1.485329601E0,1.842987410E0,2.381460343E0
3.596423250E0,2.969625413E-1,-1.431764427E0,1.059273401E0,1.805601358E0
3.606431250E0,2.362877387E-1,-1.165412645E0,4.178946555E-1,1.260418371E0
3.616440250E0,1.571889442E-1,-8.816934621E-1,-1.198959875E-1,9.035855096E-1
3.626449250E0,2.152851248E-1,-6.502542347E-1,-4.695758192E-1,8.304695688E-1
3.636457250E0,3.971352857E-1,-5.429262525E-1,-5.267721863E-1,8.543853271E-1
3.646466250E0,4.881489515E-1,-4.731514281E-1,-3.351202647E-1,7.579361877E-1
3.656475250E0,4.801230633E-1,-3.568579102E-1,-1.322148832E-1,6.126552859E-1
3.666483250E0,4.940575629E-1,-2.550672412E-1,-6.488881789E-2,5.597881132E-1
3.676492250E0,5.160512799E-1,-2.017856580E-1,-1.467545879E-1,5.732044001E-1
3.686501250E0,6.565247887E-1,-2.123492378E-1,-2.784573098E-1,7.440802849E-1
3.696509250E0,8.222570997E-1,-2.012138003E-1,-4.325267279E-1,9.506172215E-1
3.706518250E0,9.202073175E-1,-2.225380111E-1,-6.193955541E-1,1.131351195E0
3.716527250E0,1.057174836E0,-3.120694077E-1,-7.785392225E-1,1.349492227E0
3.726536250E0,1.165674015E0,-3.810016483E-1,-8.595360231E-1,1.497584836E0
3.736544250E0,1.158176131E0,-4.384452796E-1,-8.888609791E-1,1.524362179E0
3.746553250E0,1.047895305E0,-5.419064981E-1,-9.716014194E-1,1.528318206E0
3.756562250E0,9.153944743E-1,-6.784565252E-1,-1.029501718E0,1.535618471E0
3.766570250E0,6.931839073E-1,-7.592855108E-1,-9.309176624E-1,1.386948489E0
3.776579250E0,5.354008859E-1,-8.373148495E-1,-7.016869283E-1,1.216599692E0
3.786588250E0,5.040334976E-1,-9.214533591E-1,-4.642320853E-1,1.148319419E0
3.796596250E0,5.086095285E-1,-9.550906366E-1,-3.055608720E-1,1.124388377E0
3.806605250E0,4.629837048E-1,-9.471343303E-1,-2.424471956E-1,1.081756901E0
3.816614250E0,4.734554833E-1,-9.722153771E-1,-1.430059471E-1,1.090785742E0
3.826622250E0,5.443792856E-1,-9.936278808E-1,6.720148304E-2,1.134971899E0
3.836631250E0,5.594990158E-1,-9.967672509E-1,2.225275044E-1,1.164518180E0
3.846640250E0,5.724149305E-1,-9.886343586E-1,1.929657179E-1,1.158573483E0
3.856649250E0,4.992615849E-1,-8.725677127E-1,9.378115296E-2,1.009668979E0
3.866657250E0,3.453470814E-1,-6.776876163E-1,-1.975755896E-3,7.606109489E-1
3.876666250E0,2.551146036E-1,-5.121184427E-1,-4.871724665E-2,5.742143593E-1
3.886675250E0,1.149246848E-1,-3.560667819E-1,-4.930551309E-2,3.773887517E-1
3.896683250E0,-1.984299409E-1,-1.302800578E-1,2.865714910E-2,2.390994921E-1
3.906692250E0,-6.308853328E-1,7.535248339E-2,1.361541341E-1,6.497940044E-1
3.916701250E0,-1.064106125E0,2.356924921E-1,1.924494088E-1,1.106756329E0
3.926709250E0,-1.499935361E0,4.369372827E-1,1.855111027E-1,1.573256064E0
3.936718250E0,-1.940709586E0,6.999473816E-1,1.658638734E-1,2.069732074E0
3.946727250E0,-2.356496320E0,9.190723729E-1,1.319120157E-1,2.532818532E0
3.956735250E0,-2.817133538E0,9.619728094E-1,1.162438166E-1,2.979118272E0
3.966744250E0,-3.239463306E0,8.825301987E-1,8.910400171E-2,3.358708321E0
3.976753250E0,-3.508961475E0,8.248140872E-1,7.648388308E-2,3.605409644E0
3.986762250E0,-3.715351231E0,9.834168881E-1,-7.815973163E-3,3.843306472E0
3.996770250E0,-3.792284802E0,1.514286767E0,-1.290487073E-1,4.085479408E0
4.006779250E0,-3.565097669E0,1.964331168E0,-3.835925496E-1,4.088479127E0
4.016788250E0,-3.543039633E0,2.202871254E0,-6.243989434E-1,4.218488550E0
4.026796250E0,-3.752176411E0,2.250785093E0,-7.184275798E-1,4.434072568E0
4.036805250E0,-3.825814490E0,2.159280261E0,-4.665627855E-1,4.417808121E0
4.046814250E0,-3.509414635E0,2.022532598E0,-1.132903149E-1,4.052093766E0
4.056822250E0,-2.546646019E0,1.863514060E0,1.150047916E-1,3.157739176E0
4.066831250E0,-1.062037965E0,1.580515839E0,1.783126686E-1,1.912524605E0
4.076840250E0,6.829658979E-1,1.406003934E0,9.597912133E-2,1.566046446E0
4.086848250E0,2.628642109E0,1.251474304E0,3.402326681E-2,2.911546814E0
4.096857250E0,4.521092286E0,1.000434040E0,1.018654402E-1,4.631578596E0
4.106866250E0,6.021052789E0,7.083644485E-1,4.112334343E-1,6.076509674E0
4.116875250E0,6.786985415E0,3.980901361E-1,8.979645091E-1,6.857695461E0
4.126883250E0,6.591727003E0,3.738592744E-2,1.522973975E0,6.765479460E0
4.136892250E0,5.431678010E0,-2.389031982E-1,2.353737019E0,5.924548818E0
4.146900500E0,3.715104479E0,-4.775859565E-1,3.099820102E0,4.861992832E0
4.156908500E0,1.979086032E0,-7.462818879E-1,3.551371331E0,4.133516240E0
4.166917500E0,4.781455350E-1,-8.621204925E-1,3.806535636E0,3.932122638E0
4.176926500E0,-4.376412874E-1,-9.094285601E-1,3.906645230E0,4.034906090E0
4.186934500E0,-7.975572914E-1,-1.194737016E0,3.758435270E0,4.023596631E0
4.196943500E0,-1.126211742E0,-1.378995060E0,3.517652777E0,3.942570395E0
4.206952500E0,-1.545562354E0,-1.212193294E0,3.020062911E0,3.602631754E0
4.216961500E0,-1.610532521E0,-9.372829413E-1,1.890459784E0,2.654458986E0
4.226969500E0,-1.319161672E0,-7.251798713E-1,6.636209697E-1,1.645134084E0
4.236978500E0,-8.555558234E-1,-6.430457872E-1,-3.809059002E-2,1.070950300E0
4.246987500E0,-6.602330929E-1,-6.679467398E-1,-3.506334760E-1,1.002499087E0
4.256995500E0,-5.321305382E-1,-7.894600672E-1,-4.861369977E-1,1.068989845E0
4.267004500E0,-1.977189195E-1,-9.245839584E-1,-3.675214043E-1,1.014406353E0
4.277013500E0,1.578865170E-2,-1.038276050E0,-2.564658952E-1,1.069598613E0
4.287021500E0,1.315968508E-1,-1.147465201E0,-1.326295421E-1,1.162576756E0
4.297030500E0,2.375706178E-1,-1.224903971E0,3.237837195E-2,1.248149789E0
4.307039500E0,4.123854089E-1,-1.155793975E0,3.024296880E-1,1.263877033E0
4.317047500E0,8.090295285E-1,-1.025402235E0,5.454966154E-1,1.415466382E0
4.327056500E0,1.273500180E0,-8.588945836E-1,6.883873632E-1,1.683264619E0
4.337065500E0,1.613609326E0,-7.271129608E-1,6.862660664E-1,1.898259579E0
4.347074500E0,1.704127733E0,-7.385314035E-1,5.577781072E-1,1.939225717E0
4.357082500E0,1.588124236E0,-8.171039486E-1,4.402533118E-1,1.839461995E0
4.367091500E0,1.294070685E0,-7.958709544E-1,4.204275962E-1,1.576321312E0
4.377100500E0,1.047547395E0,-7.456995052E-1,5.276638502E-1,1.389910945E0
4.387108500E0,8.909630531E-1,-7.385284799E-1,7.466824222E-1,1.377234227E0
4.397117500E0,8.300859368E-1,-7.361451548E-1,9.054319882E-1,1.432047289E0
4.407126500E0,8.622830451E-1,-7.434243536E-1,1.017233163E0,1.526753133E0
4.417134500E0,8.488531601E-1,-7.215200990E-1,1.132982817E0,1.588959724E0
4.427143500E0,7.858476573E-1,-7.413597018E-1,1.222704248E0,1.631617733E0
4.437152500E0,7.989115065E-1,-8.203386283E-1,1.213517688E0,1.668484414E0
4.447161500E0,8.459921175E-1,-8.511142784E-1,1.269296617E0,1.746771903E0
4.457169500E0,8.595108801E-1,-7.797525197E-1,1.405401671E0,1.822615374E0
4.467178500E0,8.757246244E-1,-6.988966370E-1,1.517588105E0,1.886378483E0
4.477187500E0,8.976861817E-1,-5.431121939E-1,1.621023595E0,1.930939883E0
4.487195500E0,8.525977170E-1,-3.402845621E-1,1.584073285E0,1.830848061E0
4.497204500E0,7.733357853E-1,-1.580274349E-1,1.441011214E0,1.643025936E0
4.507213500E0,5.380601996E-1,5.168938637E-4,1.307915722E0,1.414267507E0
4.517221500E0,1.631870180E-1,1.636202967E-1,1.160402750E0,1.183188974E0
4.527230500E0,-3.294356382E-1,3.526964468E-1,8.681875634E-1,9.933137815E-1
4.537239500E0,-7.953447050E-1,5.208845884E-1,3.809671497E-1,1.024221618E0
4.547247500E0,-1.396479989E0,7.280923694E-1,-7.151031453E-2,1.576511524E0
4.557256500E0,-2.308276087E0,1.159891119E0,-3.901642352E-1,2.612606750E0
4.567265500E0,-3.252830626E0,1.663605359E0,-5.598445863E-1,3.696202893E0
4.577274500E0,-3.903247998E0,2.106291624E0,-5.823166054E-1,4.473354666E0
4.587282500E0,-4.273661508E0,2.515961586E0,-3.129271577E-1,4.969121531E0
4.597291500E0,-4.544637269E0,2.914503711E0,2.224970806E-1,5.403477097E0
4.607300500E0,-4.724247361E0,3.173313171E0,8.096469945E-1,5.748387414E0
4.617308500E0,-4.848543963E0,3.187868060E0,1.222767398E0,5.930096242E0
4.627317500E0,-4.855101031E0,2.919474429E0,1.330809326E0,5.819483691E0
4.637326500E0,-4.677859061E0,2.389169977E0,1.250519453E0,5.399471962E0
4.647334500E0,-3.992232680E0,1.803310543E0,9.943424106E-1,4.492056045E0
4.657343500E0,-2.387221100E0,9.373531079E-1,3.695913917E-1,2.591149016E0
4.667352500E0,-3.774956578E-1,3.587383747E-1,-4.751330495E-1,7.049451098E-1
4.677361500E0,1.810447070E0,1.520381320E-1,-1.470622684E0,2.337427061E0
4.687369500E0,3.786341692E0,1.934609771E-2,-2.238775497E0,4.398735432E0
4.697378500E0,5.244432038E0,-1.191060287E-1,-2.841188398E0,5.965786215E0
4.707387500E0,6.022235096E0,-1.772899175E-1,-2.972691693E0,6.718306570E0
4.717395500E0,6.015539449E0,-1.515668464E-1,-2.449473481E0,6.496892158E0
4.727404500E0,4.977406071E0,-1.353905243E-1,-1.287242306E0,5.142946096E0
4.737413500E0,3.167066590E0,-3.724255371E-1,1.364721861E-3,3.188889059E0
4.747421500E0,1.353007695E0,-8.445402539E-1,9.242892587E-1,1.843417668E0
4.757430500E0,-1.246334016E-1,-1.134624715E0,1.541034855E0,1.917731773E0
4.767439500E0,-1.111220650E0,-1.114585723E0,1.888736025E0,2.458543560E0
4.777447500E0,-1.428440870E0,-9.049718124E-1,1.823655345E0,2.486993389E0
4.787456500E0,-1.070342181E0,-6.426557779E-1,1.343839846E0,1.834269436E0
4.797465500E0,-2.024183267E-1,-4.660868222E-1,6.831898463E-1,8.514449312E-1
4.807474500E0,6.529673427E-1,-3.155081552E-1,4.719170809E-2,7.267315901E-1
4.817482500E0,1.169085281E0,-2.394633615E-1,-4.343229560E-1,1.269936820E0
4.827491500E0,1.274240438E0,-2.598929483E-1,-6.617761731E-1,1.459171251E0
4.837500500E0,1.040146574E0,-3.333977115E-1,-4.652325805E-1,1.187223772E0
4.847508500E0,7.826732039E-1,-4.635771972E-1,1.352574270E-2,9.097604672E-1
4.857517500E0,5.446558589E-1,-5.793374491E-1,5.389285111E-1,9.605861880E-1
4.867526500E0,3.333006477E-1,-6.146715885E-1,8.932382047E-1,1.134365450E0
4.877534500E0,3.793632585E-1,-6.785266918E-1,9.651987183E-1,1.239323815E0
4.887543500E0,6.064784700E-1,-6.110439759E-1,7.640205860E-1,1.151050968E0
4.897552500E0,9.096396446E-1,-4.469716895E-1,3.607510229E-1,1.075810985E0
4.907560500E0,1.279676594E0,-4.144073761E-1,-1.703340697E-1,1.355846361E0
4.917569500E0,1.422744513E0,-4.574867374E-1,-7.236970174E-1,1.660491926E0
4.927578500E0,1.254348210E0,-5.394956911E-1,-1.213776646E0,1.826936994E0
4.937587500E0,8.523848784E-1,-6.208439094E-1,-1.614530847E0,1.928397520E0
4.947595500E0,4.079362625E-1,-8.040459466E-1,-1.956643249E0,2.154380347E0
4.957604500E0,-4.460957766E-2,-1.046142894E0,-2.189236132E0,2.426759117E0
4.967613500E0,-4.825081426E-1,-1.239561771E0,-2.141025839E0,2.520579127E0
4.977621500E0,-7.693795592E-1,-1.375461588E0,-1.891573094E0,2.462090221E0
4.987630500E0,-7.384097815E-1,-1.424112761E0,-1.516606357E0,2.207587145E0
4.997639500E0,-3.917079002E-1,-1.436701816E0,-1.151198648E0,1.882234182E0
5.007648500E0,-9.760464728E-2,-1.361519487E0,-9.445451832E-1,1.659948066E0
5.017656500E0,1.294386435E-1,-1.267624313E0,-7.398014188E-1,1.473408260E0
5.027665500E0,3.078553194E-1,-1.242661380E0,-5.384490395E-1,1.388851890E0
5.037674500E0,5.102286226E-1,-1.187403438E0,-3.007983148E-1,1.326928709E0
5.047682500E0,7.639989513E-1,-1.027364561E0,-1.267559409E-1,1.286561078E0
5.057691500E0,9.470472068E-1,-8.520732218E-1,-2.810288787E-2,1.274251529E0
5.067700500E0,9.110476542E-1,-6.796283072E-1,-1.719081402E-3,1.136620174E0
5.077708500E0,6.802720857E-1,-5.339747500E-1,-1.504161143E-1,8.777950511E-1
5.087717500E0,4.464267290E-1,-4.024299395E-1,-4.780227435E-1,7.679533995E-1
5.097726500E0,1.845732093E-1,-1.751568532E-1,-7.303645974E-1,7.734207380E-1
5.107734500E0,-1.220179421E-1,1.097656864E-1,-7.971017933E-1,8.138231706E-1
5.117743500E0,-4.064463919E-1,3.334339643E-1,-7.028552020E-1,8.777142547E-1
5.127752500E0,-6.545718187E-1,4.955334002E-1,-5.245057690E-1,9.742299104E-1
5.137761500E0,-8.703978109E-1,6.161281300E-1,-2.086315781E-1,1.086615552E0
5.147769625E0,-1.249963383E0,7.932356143E-1,1.362114551E-1,1.486669015E0
5.157778625E0,-1.781067735E0,9.948569655E-1,5.258716786E-1,2.106770913E0
5.167787625E0,-2.199945307E0,1.135255630E0,9.965280998E-1,2.668638783E0
5.177795625E0,-2.328694564E0,1.225223814E0,1.431158071E0,2.995363950E0
5.187804625E0,-2.159078532E0,1.190507140E0,1.516653720E0,2.894678888E0
5.197813625E0,-1.907168788E0,1.142285737E0,1.223172026E0,2.537372518E0
5.207821625E0,-1.521154321E0,1.313135532E0,7.673581767E-1,2.151063450E0
5.217830625E0,-9.677288085E-1,1.638357081E0,5.032780373E-1,1.968248398E0
5.227839625E0,-5.423514712E-1,2.038911234E0,3.520292795E-1,2.138978437E0
5.237848625E0,-6.852235079E-1,2.457867744E0,2.204903162E-1,2.561105441E0
5.247856625E0,-1.436014184E0,2.625147228E0,1.161870986E-1,2.994500651E0
5.257865625E0,-2.544884838E0,2.404570958E0,2.703962652E-1,3.511625616E0
5.267874625E0,-3.643892409E0,2.047674456E0,5.798244856E-1,4.219848220E0
5.277882625E0,-4.299155953E0,1.639942262E0,9.681639145E-1,4.702073361E0
5.287891625E0,-4.036817114E0,1.120531756E0,1.200961450E0,4.358186806E0
5.297900625E0,-2.596135683E0,6.051242548E-1,1.192854797E0,2.920444900E0
5.307908625E0,-4.965087157E-1,3.875131077E-1,1.092797243E0,1.261306120E0
5.317917625E0,1.840570171E0,2.723299760E-1,8.127068424E-1,2.030358240E0
5.327926625E0,3.742530259E0,2.675954854E-1,5.636914694E-1,3.794191370E0
5.337934625E0,4.759493208E0,2.695104486E-1,5.416357720E-1,4.797789156E0
5.347943625E0,4.661343600E0,1.051919943E-1,9.157318586E-1,4.751605450E0
5.357952625E0,3.413448377E0,-1.963962793E-1,1.571943821E0,3.763138145E0
5.367961625E0,1.701652606E0,-4.637637234E-1,2.175217432E0,2.800405196E0
5.377969625E0,3.229715413E-1,-5.971790582E-1,2.672380452E0,2.757272334E0
5.387978625E0,-7.520747244E-1,-4.936383176E-1,3.057525437E0,3.187123621E0
5.397987625E0,-1.339456188E0,-3.180417538E-1,3.148025717E0,3.435892803E0
5.407995625E0,-1.380447509E0,-2.316257536E-1,2.869667847E0,3.192848159E0
5.418004625E0,-1.216955266E0,-1.799808061E-1,2.168553945E0,2.493190611E0
5.428013625E0,-9.391756850E-1,-1.190270913E-1,1.298663088E0,1.607091856E0
5.438021625E0,-6.216800612E-1,-8.173413455E-2,6.619217688E-1,9.117603826E-1
5.448030625E0,-2.983869231E-1,-1.381720448E-1,3.022209424E-1,4.466136673E-1
5.458039625E0,1.003253567E-1,-3.407611102E-1,1.150808420E-1,3.733991318E-1
5.468048625E0,3.833925748E-1,-5.465509415E-1,9.684100091E-2,6.746006059E-1
5.478056625E0,4.388925916E-1,-7.238882214E-1,2.584708872E-1,8.851260156E-1
5.488065625E0,3.046025133E-1,-8.223424691E-1,5.956026489E-1,1.060081291E0
5.498074625E0,1.833423704E-1,-8.822717518E-1,9.165557313E-1,1.285337418E0
5.508082625E0,2.638947827E-1,-9.489802963E-1,1.110288604E0,1.484232072E0
5.518091625E0,4.471716642E-1,-9.672060674E-1,1.140333352E0,1.560708246E0
5.528100625E0,6.773344445E-1,-1.007148982E0,1.003561131E0,1.574886017E0
5.538108625E0,9.474038869E-1,-1.030682856E0,7.469052011E-1,1.586741521E0
5.548117625E0,1.360137205E0,-1.017924816E0,3.887883854E-1,1.742785287E0
5.558126625E0,1.810513144E0,-9.592345583E-1,2.921152452E-2,2.049132034E0
5.568135625E0,2.041021494E0,-9.253166145E-1,-1.616304892E-1,2.246798610E0
5.578143625E0,2.114554909E0,-1.037811781E0,-2.558215320E-1,2.369354429E0
5.588152625E0,2.040416307E0,-1.242231025E0,-3.004463124E-1,2.407634651E0
5.598161625E0,1.892888718E0,-1.465431526E0,-3.265506220E-1,2.416019984E0
5.608169625E0,1.680876279E0,-1.627860745E0,-2.770516209E-1,2.356275296E0
5.618178625E0,1.364650671E0,-1.659236319E0,-1.470609820E-1,2.153360989E0
5.628187625E0,9.599023104E-1,-1.705762614E0,-2.185574094E-2,1.957425915E0
5.638195625E0,4.761703455E-1,-1.785723288E0,1.025788736E-1,1.850964150E0
5.648204625E0,9.902201235E-2,-1.868737963E0,2.766084019E-1,1.891692137E0
5.658213625E0,-2.581551558E-1,-1.849430457E0,6.158217359E-1,1.966284188E0
5.668221625E0,-5.722611487E-1,-1.688699854E0,1.045306742E0,2.066846923E0
5.678230625E0,-7.882309824E-1,-1.440284990E0,1.448857008E0,2.189729564E0
5.688239625E0,-7.100560480E-1,-1.172397729E0,1.665366540E0,2.156882412E0
5.698248625E0,-3.796602970E-1,-8.676542974E-1,1.746762121E0,1.986993666E0
5.708256625E0,-1.039401054E-2,-5.263184059E-1,1.754212643E0,1.831496955E0
5.718265625E0,2.965707779E-1,-1.662790257E-1,1.606043029E0,1.641638557E0
5.728274625E0,5.884105736E-1,1.278177953E-1,1.134972698E0,1.284806373E0
5.738282625E0,5.597533697E-1,4.094214553E-1,4.436153877E-1,8.232523156E-1
5.748291625E0,2.058904034E-1,6.866198230E-1,-2.746682410E-1,7.676459354E-1
5.758300625E0,-2.683503610E-1,8.653978568E-1,-8.397852981E-1,1.235380392E0
5.768309625E0,-8.855497009E-1,1.050149406E0,-1.231707791E0,1.845024696E0
5.778317625E0,-1.492753810E0,1.321243865E0,-1.480348942E0,2.483028852E0
5.788326625E0,-2.031974097E0,1.690488517E0,-1.618697573E0,3.099492215E0
5.798335625E0,-2.378497639E0,2.076707636E0,-1.567232720E0,3.525079293E0
5.808343625E0,-2.451668526E0,2.484470821E0,-1.143201996E0,3.672898668E0
5.818352625E0,-2.377135822E0,2.932123711E0,-3.891509128E-1,3.794675560E0
5.828361625E0,-2.364073142E0,3.318301899E0,2.861358368E-1,4.084341200E0
5.838369625E0,-2.392335659E0,3.583328703E0,7.438231337E-1,4.372274849E0
5.848378625E0,-2.291993346E0,3.611785932E0,1.044268277E0,4.403263261E0
5.858387625E0,-2.190651158E0,3.470617774E0,1.081146666E0,4.244174636E0
5.868395625E0,-2.143468806E0,3.060944889E0,7.816768384E-1,3.817703604E0
5.878404625E0,-2.137946695E0,2.518461270E0,1.585133386E-1,3.307353885E0
5.888413625E0,-1.974339262E0,2.077692307E0,-5.331877148E-1,2.915323307E0
5.898422625E0,-1.389185003E0,1.590668945E0,-1.101887909E0,2.382062054E0
5.908430625E0,-3.024752963E-1,1.110951678E0,-1.566826923E0,1.944389761E0
5.918439625E0,1.186079628E0,6.256456429E-1,-2.103043495E0,2.494195121E0
5.928448625E0,2.468009740E0,2.607817250E-1,-2.523726103E0,3.539530001E0
5.938456625E0,3.226456175E0,2.542135477E-2,-2.722391102E0,4.221620424E0
5.948465625E0,3.373992535E0,-8.502962530E-2,-2.438927443E0,4.164063249E0
5.958474625E0,2.910515326E0,-1.051709443E-1,-1.549388187E0,3.298903476E0
5.968482625E0,2.152874052E0,-1.660305190E-1,-3.731190169E-1,2.191266898E0
5.978491625E0,1.584114216E0,-2.800722742E-1,6.455396247E-1,1.733372359E0
5.988500625E0,1.388119056E0,-3.551429218E-1,1.300348840E0,1.934918116E0
5.998509625E0,1.626548629E0,-3.177833068E-1,1.668876039E0,2.351976596E0
6.008517625E0,2.208806763E0,-2.925046241E-1,1.641943179E0,2.767736200E0
6.018526625E0,2.851506979E0,-2.631732363E-1,1.156609662E0,3.088381148E0
6.028535625E0,3.254072574E0,-1.993888843E-1,3.717425823E-1,3.281301082E0
6.038543625E0,3.060384141E0,-1.208303726E-1,-3.101246238E-1,3.078429526E0
6.048552625E0,2.459692660E0,-1.827886391E-1,-6.475651002E-1,2.550066710E0
6.058561625E0,1.701681257E0,-3.755672461E-1,-6.794932365E-1,1.870422657E0
6.068569625E0,9.099162179E-1,-5.586049765E-1,-5.517573023E-1,1.201841572E0
6.078578625E0,1.341737187E-1,-7.209593511E-1,-3.501979315E-1,8.126644842E-1
6.088587625E0,-5.061121827E-1,-8.822565490E-1,-4.676369190E-2,1.018191044E0
6.098596625E0,-9.603314960E-1,-1.036583866E0,2.904873347E-1,1.442610684E0
6.108604625E0,-1.182151469E0,-1.142810233E0,5.082832539E-1,1.721002379E0
6.118613625E0,-1.046615934E0,-1.175058796E0,6.614884901E-1,1.706966640E0
6.128622625E0,-5.578547788E-1,-1.203371599E0,7.388664490E-1,1.518297991E0
6.138630625E0,3.901262283E-3,-1.129311351E0,5.623308223E-1,1.261576514E0
6.148639417E0,5.262359601E-1,-9.935530365E-1,1.507102293E-1,1.134365680E0
6.158648417E0,8.485976368E-1,-9.418958098E-1,-3.256156522E-1,1.308935147E0
6.168656417E0,8.832558382E-1,-9.500748950E-1,-8.175085759E-1,1.533330836E0
6.178665417E0,7.152442825E-1,-9.542211556E-1,-1.165546546E0,1.667516461E0
6.188674417E0,4.110230076E-1,-9.438493645E-1,-1.293359079E0,1.653048469E0
6.198683417E0,1.642699224E-1,-9.240121007E-1,-1.198396788E0,1.522149083E0
6.208691417E0,1.178915620E-2,-9.968900424E-1,-1.040716678E0,1.441186992E0
6.218700417E0,-1.363348496E-1,-1.078249370E0,-8.400747353E-1,1.373657329E0
6.228709417E0,-9.600017130E-2,-1.134422987E0,-6.639472443E-1,1.317936830E0
6.238717417E0,1.500161648E-1,-1.108689390E0,-4.154990512E-1,1.193455687E0
6.248726417E0,5.109770662E-1,-9.984149963E-1,-1.645938581E-1,1.133587758E0
6.258735417E0,9.365111089E-1,-9.924087363E-1,-4.407689631E-2,1.365236584E0
6.268743417E0,1.130961435E0,-1.016047275E0,5.270095468E-2,1.521250546E0
6.278752417E0,1.100108601E0,-1.068872191E0,1.498840543E-1,1.541165768E0
6.288761417E0,8.409553260E-1,-1.092511899E0,2.384173312E-1,1.399153649E0
6.298770417E0,5.615122122E-1,-1.021348361E0,3.708426958E-1,1.223099646E0
6.308778417E0,4.143752164E-1,-9.298166317E-1,3.885194135E-1,1.089593100E0
6.318787417E0,3.487817359E-1,-8.225026828E-1,2.326413785E-1,9.231908651E-1
6.328796417E0,1.720677692E-1,-6.562558168E-1,-9.150892496E-2,6.845822797E-1
6.338804417E0,-1.604154378E-1,-4.954334128E-1,-4.195839161E-1,6.687585826E-1
6.348813417E0,-5.345103550E-1,-3.705129129E-1,-6.470979077E-1,9.174512741E-1
6.358822417E0,-1.102557415E0,-1.665865892E-1,-7.985483944E-1,1.371518678E0
6.368830417E0,-1.673083695E0,3.254384816E-2,-8.413482589E-1,1.873001614E0
6.378839417E0,-2.076158583E0,1.795960593E-1,-7.914013427E-1,2.229126576E0
6.388848417E0,-2.473478640E0,4.442965883E-1,-6.253111821E-1,2.589693055E0
6.398857417E0,-2.778686925E0,7.542188984E-1,-3.201204755E-1,2.896968121E0
6.408865417E0,-2.943656175E0,1.047751463E0,3.863664687E-2,3.124802009E0
6.418874417E0,-3.114719977E0,1.379067566E0,4.020457409E-1,3.430007094E0
6.428883417E0,-2.801865873E0,1.543522845E0,6.668995035E-1,3.267670438E0
6.438891417E0,-2.005380961E0,1.557593000E0,6.331248164E-1,2.616963084E0
6.448900417E0,-1.467632418E0,2.028362272E0,4.044098067E-1,2.536088664E0
6.458909417E0,-1.355951768E0,2.737376931E0,1.909811364E-1,3.060769749E0
6.468917417E0,-1.692978846E0,3.165930476E0,2.078621576E-1,3.596178504E0
6.478926417E0,-2.458199866E0,3.252297360E0,4.810346442E-1,4.105067481E0
6.488935417E0,-3.266323076E0,3.108102098E0,1.032100221E0,4.625407653E0
6.498944417E0,-3.728830817E0,2.791039753E0,1.746982561E0,4.974538193E0
6.508952417E0,-3.511006247E0,2.221458968E0,2.152563419E0,4.679270678E0
6.518961417E0,-2.094020072E0,1.468728771E0,1.870413775E0,3.168679844E0
6.528970417E0,5.797221959E-2,9.908837825E-1,1.248755933E0,1.595181127E0
6.538978417E0,2.302160484E0,7.708214825E-1,5.892683601E-1,2.498268571E0
6.548987417E0,4.105747601E0,6.459109229E-1,-1.332049081E-1,4.158378029E0
6.558996417E0,5.069363478E0,4.919584125E-1,-5.657315995E-1,5.124502063E0
6.569004417E0,5.161157747E0,3.467778951E-1,-4.575505086E-1,5.192991110E0
6.579013417E0,4.324077371E0,2.150091362E-1,1.590102788E-1,4.332338665E0
6.589022417E0,2.785715278E0,-3.156210065E-2,9.722545534E-1,2.950675295E0
6.599031417E0,1.108349082E0,-3.825295258E-1,1.723751573E0,2.084726843E0
6.609039417E0,-4.062861782E-1,-6.165158004E-1,2.228178003E0,2.347325586E0
6.619048417E0,-1.468731109E0,-6.960104513E-1,2.445886214E0,2.936658134E0
6.629057417E0,-1.941872597E0,-7.131603348E-1,2.297618952E0,3.091685575E0
6.639065417E0,-1.805148323E0,-6.504097706E-1,1.711132697E0,2.570908097E0
6.649074417E0,-1.293473684E0,-5.526109958E-1,1.039154887E0,1.748798434E0
6.659083417E0,-6.871104044E-1,-5.348670352E-1,4.909369040E-1,9.996111728E-1
6.669091417E0,-6.102914393E-2,-5.849841052E-1,1.153877477E-1,5.993707468E-1
6.679100417E0,2.447925138E-1,-6.047582191E-1,2.792805612E-2,6.530205623E-1
6.689109417E0,2.834490412E-1,-6.778560162E-1,1.707714415E-1,7.543175875E-1
6.699117417E0,1.025759500E-1,-7.811652070E-1,4.951305270E-1,9.305348704E-1
6.709126417E0,-2.999797046E-2,-9.055208659E-1,8.903069955E-1,1.270241892E0
6.719135417E0,-1.892100513E-2,-1.019014737E0,1.317401075E0,1.665621395E0
6.729144417E0,1.279148591E-1,-1.105492133E0,1.510869654E0,1.876486658E0
6.739152417E0,4.784145069E-1,-1.089392409E0,1.528314237E0,1.936853291E0
6.749161417E0,1.003603815E0,-9.815755999E-1,1.440625883E0,2.011495516E0
6.759170417E0,1.552186664E0,-8.619637871E-1,1.277375130E0,2.187224779E0
6.769178417E0,2.032264704E0,-7.366181946E-1,1.011882888E0,2.386757879E0
6.779187417E0,2.320058227E0,-6.211707687E-1,6.535058713E-1,2.489094860E0
6.789196417E0,2.260050007E0,-5.028950447E-1,2.637778018E-1,2.330302166E0
6.799205417E0,1.924177753E0,-4.294967008E-1,-9.315725505E-2,1.973728886E0
6.809213417E0,1.592820135E0,-4.373869336E-1,-2.317199121E-1,1.667956064E0
6.819222417E0,1.275397017E0,-5.014542907E-1,-2.268813411E-1,1.389089306E0
6.829231417E0,1.000318850E0,-5.911745524E-1,-1.283955002E-1,1.169021196E0
6.839239417E0,8.459430009E-1,-7.354142529E-1,-2.564004064E-3,1.120919381E0
6.849248417E0,7.365223002E-1,-9.341125810E-1,8.499162753E-2,1.192583326E0
6.859257417E0,5.205992442E-1,-1.124638841E0,6.077595036E-2,1.240777906E0
6.869265417E0,3.246736658E-1,-1.242543266E0,-7.621670187E-2,1.286520790E0
6.879274417E0,2.992289221E-1,-1.269570851E0,-1.211203945E-1,1.309968795E0
6.889283417E0,1.434070569E-1,-1.124508448E0,1.928644697E-2,1.133779873E0
6.899292417E0,7.242887557E-2,-9.195635390E-1,2.513004649E-1,9.560308405E-1
6.909300417E0,8.416248322E-2,-7.427782363E-1,5.304886401E-1,9.166357123E-1
6.919309417E0,5.853706062E-2,-6.252702516E-1,7.853278399E-1,1.005549248E0
6.929318417E0,-1.134710670E-2,-4.901194632E-1,1.085444369E0,1.191022806E0
6.939326417E0,-4.347404838E-3,-2.996627855E-1,1.376287215E0,1.408539379E0
6.949335417E0,1.267518479E-1,-1.629654086E-1,1.594534539E0,1.607844567E0
6.959344417E0,1.190814704E-1,-8.776085973E-3,1.715729778E0,1.719879672E0
6.969352417E0,-4.438212097E-2,1.141464204E-1,1.662576249E0,1.667080970E0
6.979361417E0,-3.007269788E-1,1.347829986E-1,1.377634413E0,1.416502647E0
6.989370417E0,-6.849410874E-1,2.135180962E-1,7.710629725E-1,1.053220005E0
6.999379417E0,-9.885858268E-1,4.581492269E-1,7.107992291E-2,1.091904303E0
7.009387417E0,-1.263892035E0,8.997157502E-1,-5.278059375E-1,1.638746660E0
7.019396417E0,-1.439210857E0,1.506629253E0,-1.261769496E0,2.435841099E0
7.029405417E0,-1.543408824E0,2.111193345E0,-1.781742504E0,3.164467489E0
7.039413417E0,-1.710840336E0,2.640275145E0,-1.803899943E0,3.626580000E0
7.049422417E0,-1.783844578E0,3.072475598E0,-1.160901518E0,3.737632956E0
7.059431417E0,-1.803691197E0,3.327686096E0,-1.948054712E-2,3.785125649E0
7.069439417E0,-1.963707270E0,3.210725411E0,1.007918476E0,3.896255068E0
7.079448417E0,-2.422957528E0,2.874796439E0,1.646230942E0,4.104297024E0
7.089457417E0,-2.963816789E0,2.631194419E0,1.862000216E0,4.378862733E0
7.099466417E0,-3.255381181E0,2.452433342E0,1.806492598E0,4.458178040E0
7.109474417E0,-3.306619163E0,2.163611879E0,1.600124477E0,4.263255211E0
7.119483417E0,-3.016827646E0,1.660196432E0,1.263928288E0,3.668107954E0
7.129492417E0,-2.344080343E0,1.077141323E0,7.350166422E-1,2.682386167E0
7.139500417E0,-1.481093293E0,7.224234939E-1,2.619283823E-1,1.668574099E0
7.149511875E0,-4.068673915E-1,2.952335197E-1,-1.538525230E-1,5.257133289E-1
7.159520875E0,9.066107869E-1,-2.319157755E-1,-5.707835573E-1,1.096139551E0
7.169529875E0,2.150095455E0,-6.419751620E-1,-8.646359646E-1,2.404711610E0
7.179537875E0,3.074149656E0,-9.589258254E-1,-9.583440274E-1,3.359815191E0
7.189546875E0,3.539942363E0,-1.186955541E0,-6.929465103E-1,3.797397827E0
7.199555875E0,3.520902075E0,-1.310806586E0,-2.181315494E-1,3.763315918E0
7.209563875E0,3.129644410E0,-1.399741566E0,1.174728922E-1,3.430415495E0
7.219572875E0,2.490131510E0,-1.472430058E0,2.510654251E-1,2.903762914E0
7.229581875E0,1.807533987E0,-1.464825754E0,1.656270794E-1,2.332450628E0
7.239589875E0,1.338921168E0,-1.325976017E0,-5.141573668E-2,1.885090414E0
7.249598875E0,1.137092825E0,-1.188360043E0,-3.209747171E-1,1.675769809E0
7.259607875E0,9.325771022E-1,-1.018044099E0,-5.344974911E-1,1.480473373E0
7.269616875E0,6.293510234E-1,-8.062977093E-1,-5.745942243E-1,1.173182522E0
7.279624875E0,3.742142004E-1,-6.734922391E-1,-3.669268155E-1,8.533834729E-1
7.289633875E0,2.469027740E-1,-6.395614314E-1,2.061845183E-2,6.858752984E-1
7.299642875E0,1.479409879E-1,-7.291577321E-1,5.562023556E-1,9.289341175E-1
7.309650875E0,7.446487606E-2,-8.545430857E-1,9.303832269E-1,1.265465073E0
7.319659875E0,8.535473049E-2,-9.877069902E-1,1.135257969E0,1.507203100E0
7.329668875E0,1.357524669E-1,-1.108027486E0,1.186288959E0,1.628936811E0
7.339676875E0,3.069250274E-1,-1.144631056E0,1.027307843E0,1.568357303E0
7.349685875E0,4.490375108E-1,-1.061507623E0,7.878479898E-1,1.396115172E0
7.359694875E0,5.027020866E-1,-9.187332344E-1,5.201308823E-1,1.169323000E0
7.369703875E0,5.203220862E-1,-9.128690618E-1,2.393499621E-1,1.077661079E0
7.379711875E0,4.618171853E-1,-9.546795774E-1,2.846424580E-2,1.060895104E0
7.389720875E0,3.035628784E-1,-9.408620220E-1,-1.582993305E-1,1.001214484E0
7.399729875E0,8.437122881E-2,-9.409532386E-1,-2.328092484E-1,9.729910830E-1
7.409737875E0,-1.310355181E-1,-9.562916547E-1,-2.519752518E-1,9.975748410E-1
7.419746875E0,-3.140697402E-1,-9.356644320E-1,-3.527625203E-1,1.048116943E0
7.429755875E0,-3.341280288E-1,-9.967923939E-1,-4.435955071E-1,1.141058101E0
7.439763875E0,-3.120729160E-1,-1.043118714E0,-3.545599544E-1,1.145075944E0
7.449772875E0,-2.330483812E-1,-1.060717079E0,-2.146232200E-1,1.107020956E0
7.459781875E0,-2.873964965E-2,-1.122449058E0,-1.298690077E-1,1.130302533E0
7.469790875E0,1.998771268E-1,-1.169089374E0,-4.999720673E-2,1.187105956E0
7.479798875E0,4.055909443E-1,-1.211871112E0,-5.782311559E-2,1.279249436E0
7.489807875E0,6.001921284E-1,-1.276903844E0,-5.357686758E-2,1.411943519E0
7.499816875E0,7.650906265E-1,-1.302498277E0,-8.126460314E-2,1.512768774E0
7.509824875E0,9.133175433E-1,-1.367819277E0,-1.713532394E-1,1.653614357E0
7.519833875E0,9.661635089E-1,-1.425824241E0,-3.605556893E-1,1.759672440E0
7.529842875E0,9.361596912E-1,-1.377106410E0,-5.119623220E-1,1.742102882E0
7.539851875E0,7.447452396E-1,-1.246989489E0,-5.023150009E-1,1.536863240E0
7.549859875E0,4.172590631E-1,-1.115299668E0,-4.377482915E-1,1.268708809E0
7.559868875E0,-3.664099216E-2,-9.880531454E-1,-3.205350065E-1,1.039391298E0
7.569877875E0,-5.927462840E-1,-8.256555015E-1,-1.819443194E-1,1.032549708E0
7.579885875E0,-1.198823635E0,-6.498601323E-1,-6.886675179E-2,1.365371352E0
7.589894875E0,-1.717397404E0,-5.634207433E-1,7.322818995E-2,1.808938679E0
7.599903875E0,-2.118514059E0,-5.060554647E-1,3.407891403E-1,2.204615882E0
7.609911875E0,-2.480234513E0,-4.368279397E-1,6.129705970E-1,2.591932646E0
7.619920875E0,-2.751664018E0,-3.827224839E-1,7.921293211E-1,2.888875253E0
7.629929875E0,-2.890020835E0,-2.724241161E-1,8.786160725E-1,3.032886666E0
7.639937875E0,-2.819799868E0,-1.350046080E-1,8.375107312E-1,2.944642892E0
7.649946875E0,-2.608459275E0,4.253966331E-2,7.145432013E-1,2.704892123E0
7.659955875E0,-2.320054134E0,4.684298015E-1,6.332926315E-1,2.450130041E0
7.669964875E0,-1.749833078E0,9.866591692E-1,6.633291936E-1,2.115518314E0
7.679972875E0,-1.244365844E0,1.613669552E0,7.094228677E-1,2.157697055E0
7.689981875E0,-1.130039914E0,2.306371064E0,7.054273921E-1,2.663449924E0
7.699990875E0,-1.000351009E0,2.488039961E0,4.779642713E-1,2.723874967E0
7.709998875E0,-1.099055518E0,2.271028739E0,2.786280119E-1,2.538331762E0
7.720007875E0,-1.648463409E0,1.985661226E0,3.359979683E-1,2.602532757E0
7.730016875E0,-2.349477323E0,1.776091754E0,7.049064052E-1,3.028438319E0
7.740025875E0,-2.857778703E0,1.836150845E0,1.445708867E0,3.691669429E0
7.750033875E0,-3.040865550E0,1.785102898E0,2.260973867E0,4.188729936E0
7.760042875E0,-2.717383547E0,1.353581892E0,2.856832623E0,4.168674839E0
7.770051875E0,-1.749901491E0,9.504836154E-1,3.150601416E0,3.727179042E0
7.780059875E0,-4.070048010E-1,7.582739425E-1,3.190002294E0,3.304050077E0
7.790068875E0,1.060501902E0,6.267554444E-1,3.001791531E0,3.244724806E0
7.800077875E0,2.277213923E0,4.379196149E-1,2.775035339E0,3.616392951E0
7.810085875E0,2.891779677E0,1.993461996E-1,2.583478215E0,3.882845387E0
7.820094875E0,2.767404138E0,-2.859873176E-2,2.596999024E0,3.795226934E0
7.830103875E0,1.966637310E0,-1.723805952E-1,2.831125925E0,3.451470901E0
7.840112875E0,1.149383672E0,-2.947218883E-1,3.067996631E0,3.289460008E0
7.850120875E0,5.170412135E-1,-3.834165484E-1,3.175588907E0,3.240170485E0
7.860129875E0,1.411798525E-1,-4.338207167E-1,3.043825411E0,3.077824767E0
7.870138875E0,2.179140329E-2,-5.164518142E-1,2.567866150E0,2.619376625E0
7.880146875E0,-6.977950215E-2,-5.158162218E-1,2.019604897E0,2.085602909E0
7.890155875E0,-3.678249478E-2,-5.192046833E-1,1.508605612E0,1.595875104E0
7.900164875E0,1.069520062E-1,-5.387577724E-1,1.222146570E0,1.339903320E0
7.910172875E0,3.199789363E-1,-5.863886064E-1,1.105133114E0,1.291339350E0
7.920181875E0,3.936176008E-1,-6.396532327E-1,1.054647084E0,1.294747677E0
7.930190875E0,4.803054965E-1,-7.278146267E-1,9.940092655E-1,1.322294188E0
7.940199875E0,6.785378015E-1,-8.200567925E-1,9.189544053E-1,1.406194827E0
7.950207875E0,8.487672061E-1,-8.075022358E-1,9.715792000E-1,1.521982842E0
7.960216875E0,9.454591030E-1,-7.552661347E-1,1.055362711E0,1.605649495E0
7.970225875E0,1.057177759E0,-8.065041161E-1,1.089778326E0,1.719212175E0
7.980233875E0,1.263731822E0,-8.851982832E-1,1.103487707E0,1.896913081E0
7.990242875E0,1.553100584E0,-9.755208081E-1,1.161497495E0,2.170907346E0
8.000251875E0,1.786693341E0,-1.003360571E0,1.134090426E0,2.342043259E0
8.010260875E0,1.839704198E0,-9.351557243E-1,1.059695570E0,2.319910013E0
8.020268875E0,1.808870076E0,-8.828921413E-1,9.269571970E-1,2.216023269E0
8.030277875E0,1.747074947E0,-8.485140216E-1,7.709138685E-1,2.089630376E0
8.040286875E0,1.633218548E0,-7.602526402E-1,6.416904026E-1,1.912368551E0
8.050294875E0,1.434476951E0,-7.272573870E-1,4.716727404E-1,1.676037769E0
8.060303875E0,1.251073769E0,-7.567565900E-1,2.968047396E-1,1.491964868E0
8.070312875E0,1.069011354E0,-8.487075645E-1,1.591892767E-1,1.374201962E0
8.080320875E0,9.570734274E-1,-9.033895558E-1,1.294112346E-1,1.322440737E0
8.090329875E0,1.002522665E0,-9.036620361E-1,1.198345552E-1,1.354997081E0
8.100338875E0,1.049593921E0,-8.210426331E-1,1.116554699E-1,1.337245433E0
8.110347875E0,1.025155483E0,-8.002709842E-1,5.106545191E-2,1.301531825E0
8.120355875E0,1.017295656E0,-8.894854617E-1,-1.407192746E-2,1.351396632E0
8.130364875E0,9.485762537E-1,-9.611419201E-1,6.395275176E-2,1.351917399E0
8.140373875E0,8.064538300E-1,-9.274257052E-1,2.640918521E-1,1.257072283E0
8.150382000E0,6.768929797E-1,-8.133365875E-1,4.679737186E-1,1.157022002E0
8.160391000E0,4.755446935E-1,-6.499449170E-1,6.193212944E-1,1.015937998E0
8.170400000E0,2.813411200E-1,-5.217476374E-1,7.296898288E-1,9.401173699E-1
8.180409000E0,1.195948559E-1,-4.325998181E-1,8.143323684E-1,9.298294136E-1
8.190417000E0,-2.482476336E-1,-3.222716296E-1,8.995976365E-1,9.873002574E-1
8.200426000E0,-6.789991468E-1,-1.859455508E-1,9.550000048E-1,1.186440305E0
8.210435000E0,-1.076280028E0,1.187335610E-2,1.000002515E0,1.469191855E0
8.220443000E0,-1.357488416E0,2.533920139E-1,9.821977437E-1,1.694607542E0
8.230452000E0,-1.536975133E0,5.189088142E-1,8.528491473E-1,1.832733091E0
8.240461000E0,-1.730698065E0,8.400952005E-1,5.599153376E-1,2.003641915E0
8.250469000E0,-2.072146223E0,1.288159150E0,3.130470622E-1,2.459906996E0
8.260478000E0,-2.593025549E0,1.817380114E0,2.041344845E-1,3.173062064E0
8.270487000E0,-3.206332397E0,2.317289570E0,1.662000883E-1,3.959548063E0
8.280496000E0,-3.706616076E0,2.747926478E0,2.108763242E-1,4.618936185E0
8.290504000E0,-4.026116125E0,2.965077449E0,3.910208523E-1,5.015395561E0
8.300513000E0,-4.479880525E0,3.101217002E0,5.889327300E-1,5.480302744E0
8.310522000E0,-5.195263971E0,3.385597504E0,6.074672341E-1,6.230734678E0
8.320530000E0,-5.715729899E0,3.526606618E0,4.094389969E-1,6.728607791E0
8.330539000E0,-5.827861953E0,3.617165371E0,3.723243803E-1,6.869242004E0
8.340548000E0,-5.187566112E0,3.660256426E0,4.612125832E-1,6.365613585E0
8.350556000E0,-3.447478588E0,3.407114673E0,3.950782353E-1,4.863088095E0
8.360565000E0,-9.292523754E-1,3.077441638E0,-4.548433025E-2,3.215000130E0
8.370574000E0,1.852808393E0,2.793088033E0,-6.339644766E-1,3.411180244E0
8.380583000E0,4.541549939E0,2.205806556E0,-1.228170226E0,5.196119756E0
8.390591000E0,6.567341191E0,1.377470106E0,-1.471088122E0,6.869606573E0
8.400600000E0,7.626075479E0,2.655068600E-1,-1.283661472E0,7.737913664E0
8.410609000E0,7.285940021E0,-4.359344852E-1,-5.157887399E-1,7.317171508E0
8.420617000E0,5.973041301E0,-7.506684691E-1,7.134895331E-1,6.062160741E0
8.430626000E0,4.536385093E0,-1.309402669E0,1.683331525E0,5.012676938E0
8.440635000E0,3.156355661E0,-1.640719357E0,2.274131271E0,4.222110148E0
8.450643000E0,2.108280846E0,-1.782469897E0,2.566024277E0,3.769154766E0
8.460652000E0,1.463887276E0,-1.764065786E0,2.574366499E0,3.447064973E0
8.470661000E0,1.244812571E0,-1.628798638E0,2.193412213E0,3.002265890E0
8.480670000E0,1.283318240E0,-1.501557963E0,1.433281195E0,2.440466555E0
8.490678000E0,1.165596832E0,-1.307606989E0,4.992294252E-1,1.821450530E0
8.500687000E0,9.387342203E-1,-1.159496432E0,-4.412589598E-1,1.555751709E0
8.510696000E0,7.641995108E-1,-1.128499172E0,-1.213422378E0,1.824802768E0
8.520704000E0,6.058458012E-1,-1.006476552E0,-1.635042880E0,2.013308075E0
8.530713000E0,3.543798602E-1,-7.999259984E-1,-1.654825180E0,1.871874211E0
8.540722000E0,1.262600970E-1,-6.207918692E-1,-1.453697333E0,1.585736452E0
8.550731000E0,1.157719463E-1,-5.422842282E-1,-1.130959096E0,1.259580805E0
8.560739000E0,1.812543297E-1,-4.856147683E-1,-7.671850991E-1,9.258767799E-1
8.570748000E0,2.653343672E-1,-4.527756357E-1,-4.707675183E-1,7.050036588E-1
8.580757000E0,4.128830069E-1,-4.009453315E-1,-2.375068831E-1,6.226066622E-1
8.590765000E0,5.267101693E-1,-2.869515234E-1,-1.173700269E-1,6.111795992E-1
8.600774000E0,7.137526578E-1,-2.439967078E-1,-9.306426605E-2,7.600251361E-1
8.610783000E0,8.725004697E-1,-1.600961798E-1,-1.501377869E-1,8.996828394E-1
8.620791000E0,1.041901324E0,-1.101574498E-1,-2.797366806E-1,1.084410274E0
8.630800000E0,1.191178985E0,-2.062827516E-1,-4.057441413E-1,1.275181656E0
8.640809000E0,1.093840386E0,-3.309488976E-1,-5.850162649E-1,1.283845004E0
8.650818000E0,9.596964884E-1,-5.086545521E-1,-8.276008701E-1,1.365529203E0
8.660826000E0,9.646695453E-1,-7.206225514E-1,-9.352586353E-1,1.524661572E0
8.670835000E0,9.504116946E-1,-8.227500200E-1,-7.603719234E-1,1.469137654E0
8.680844000E0,8.594296038E-1,-8.889826012E-1,-5.199145353E-1,1.341350228E0
8.690852000E0,7.862663180E-1,-1.021906185E0,-3.222669518E-1,1.329045884E0
8.700861000E0,7.504848665E-1,-1.137368814E0,-3.306892812E-1,1.402209240E0
8.710870000E0,7.008665639E-1,-1.149503540E0,-3.912196211E-1,1.402007533E0
8.720879000E0,6.550103599E-1,-1.097348131E0,-3.332948005E-1,1.320718333E0
8.730887000E0,6.786658555E-1,-1.092127152E0,-2.066277373E-1,1.302314893E0
8.740896000E0,6.521048784E-1,-1.132244899E0,-8.830346307E-2,1.309586494E0
8.750905000E0,4.004769695E-1,-1.103662539E0,-3.333031693E-2,1.174548302E0
8.760913000E0,7.818370521E-2,-1.014215342E0,-1.145504630E-1,1.023653878E0
8.770922000E0,-9.227783382E-2,-8.219483668E-1,-2.596152238E-1,8.668992910E-1
8.780931000E0,-6.663720846E-2,-5.258693397E-1,-4.717592061E-1,7.096025849E-1
8.790939000E0,-4.730631351E-2,-1.833406162E-1,-6.085524774E-1,6.373286331E-1
8.800948000E0,-2.501006162E-1,1.330808741E-1,-6.057996082E-1,6.687705157E-1
8.810957000E0,-5.709157044E-1,2.904195070E-1,-4.876987159E-1,8.050703504E-1
8.820966000E0,-1.049614971E0,3.162770641E-1,-2.274344695E-1,1.119575458E0
8.830974000E0,-1.777913162E0,3.967774361E-1,9.008103490E-2,1.823875582E0
8.840983000E0,-2.339637628E0,4.868765974E-1,3.953723502E-1,2.422245311E0
8.850992000E0,-2.841992975E0,6.161561966E-1,7.104495656E-1,2.993544907E0
8.861000000E0,-3.312409075E0,7.579038137E-1,1.018239981E0,3.547292592E0
8.871009000E0,-3.572005570E0,8.495916635E-1,1.239513824E0,3.875232162E0
8.881018000E0,-3.343907441E0,8.749054295E-1,1.201884652E0,3.659467612E0
8.891027000E0,-2.735105288E0,9.915813553E-1,1.012726057E0,3.080527323E0
8.901035000E0,-2.060369931E0,1.318133731E0,6.563990736E-1,2.532481102E0
8.911044000E0,-1.836255510E0,1.736172228E0,3.182312036E-1,2.547037378E0
8.921053000E0,-2.229094262E0,2.074131938E0,1.023157489E-1,3.046531312E0
8.931061000E0,-2.771315925E0,2.010679708E0,1.114818442E-1,3.425704752E0
8.941070000E0,-3.182631294E0,1.672994233E0,3.524877012E-1,3.612796594E0
8.951079000E0,-3.152139233E0,1.226743505E0,7.396774578E-1,3.462369725E0
8.961087000E0,-2.463538958E0,6.945802224E-1,1.073003249E0,2.775392199E0
8.971096000E0,-1.303014001E0,3.420299560E-1,1.243455432E0,1.833306136E0
8.981105000E0,-5.300500989E-2,1.292795992E-1,1.434313813E0,1.441103349E0
8.991114000E0,1.215511588E0,-1.875897878E-1,1.532168137E0,1.964738545E0
9.001122000E0,2.326292528E0,-5.886327678E-1,1.587160031E0,2.877012760E0
9.011131000E0,2.937322471E0,-9.182338822E-1,1.711496394E0,3.521396976E0
9.021140000E0,3.001378133E0,-1.055432366E0,1.946590716E0,3.729802085E0
9.031148000E0,2.453280019E0,-1.032162786E0,2.251451676E0,3.486112092E0
9.041157000E0,1.525396476E0,-9.501403838E-1,2.461602945E0,3.047800883E0
9.051166000E0,5.538821805E-1,-8.890533525E-1,2.477809088E0,2.690118810E0
9.061174000E0,-3.373948681E-1,-8.021830237E-1,2.279920599E0,2.440362850E0
9.071183000E0,-8.864174277E-1,-6.573708808E-1,1.778603718E0,2.093156353E0
9.081192000E0,-1.074974345E0,-5.559602809E-1,1.082466967E0,1.623698374E0
9.091201000E0,-1.113791671E0,-3.810431635E-1,5.630155313E-1,1.304880173E0
9.101209000E0,-9.750799280E-1,-2.315444773E-1,2.833326817E-1,1.041475453E0
9.111218000E0,-6.994544613E-1,-2.307445782E-1,3.326596102E-2,7.372830040E-1
9.121227000E0,-2.996259481E-1,-3.060994005E-1,-4.158190766E-2,4.303505627E-1
9.131235000E0,1.075998777E-1,-3.598949540E-1,1.206034823E-1,3.945216236E-1
9.141244000E0,4.328875011E-1,-4.503122038E-1,4.542772007E-1,7.723603075E-1
9.151250542E0,5.316803026E-1,-5.791018063E-1,8.408740497E-1,1.151135098E0
9.161259542E0,4.441989398E-1,-6.767754507E-1,1.247843767E0,1.487431268E0
9.171267542E0,4.061926228E-1,-7.876076692E-1,1.582013311E0,1.813307587E0
9.181276542E0,4.846458846E-1,-8.418283153E-1,1.854336855E0,2.093351791E0
9.191285542E0,6.170882428E-1,-8.043880087E-1,2.074613163E0,2.309081581E0
9.201293542E0,8.963214415E-1,-7.653250998E-1,2.094801260E0,2.403602911E0
9.211302542E0,1.189856345E0,-7.368380499E-1,1.934572349E0,2.387730849E0
9.221311542E0,1.412356934E0,-7.090544200E-1,1.551062829E0,2.214341026E0
9.231319542E0,1.600782289E0,-7.190467268E-1,1.050419548E0,2.045217191E0
9.241328542E0,1.637346098E0,-7.469402844E-1,6.018164849E-1,1.897631448E0
9.251337542E0,1.466150149E0,-7.449352741E-1,2.741443670E-1,1.667237222E0
9.261346542E0,1.330926270E0,-8.192323351E-1,1.437959150E-1,1.569453287E0
9.271354542E0,1.162500731E0,-8.894743520E-1,1.305379017E-1,1.469562083E0
9.281363542E0,1.038619866E0,-9.918093967E-1,2.360322154E-1,1.455379096E0
9.291372542E0,9.359866136E-1,-1.089880652E0,4.727181494E-1,1.512406435E0
9.301380542E0,6.877255315E-1,-1.094130408E0,7.634744561E-1,1.500993338E0
9.311389542E0,4.877232742E-1,-1.116848010E0,1.000526426E0,1.576793138E0
9.321398542E0,5.125499672E-1,-1.209714074E0,1.178340254E0,1.764823324E0
9.331407542E0,4.634877348E-1,-1.235312015E0,1.323419030E0,1.868757497E0
9.341415542E0,4.233214563E-1,-1.243173596E0,1.388533623E0,1.911205711E0
9.351424542E0,4.459373170E-1,-1.248648344E0,1.413509420E0,1.938038095E0
9.361433542E0,2.379933715E-1,-1.110593244E0,1.511430402E0,1.890629540E0
9.371441542E0,-4.921367526E-2,-9.196740514E-1,1.581249665E0,1.829910613E0
9.381450542E0,-1.929329735E-1,-7.362369561E-1,1.548894682E0,1.725787566E0
9.391459542E0,-3.832194972E-1,-5.000462812E-1,1.448273456E0,1.579366794E0
9.401468542E0,-6.284026051E-1,-3.014087641E-1,1.354802206E0,1.523557053E0
9.411476542E0,-8.363073742E-1,-1.838148254E-1,1.231828244E0,1.500199565E0
9.421485542E0,-9.861200559E-1,-1.449822968E-1,9.987161279E-1,1.410987787E0
9.431494542E0,-1.108315169E0,3.256899118E-4,6.370504908E-1,1.278356737E0
9.441502542E0,-1.303668305E0,4.538386595E-1,4.638631260E-1,1.456258760E0
9.451511542E0,-1.330518134E0,9.998539960E-1,3.819996949E-1,1.707603668E0
9.461520542E0,-1.268735284E0,1.584922886E0,2.883636260E-1,2.050566594E0
9.471528542E0,-1.205806965E0,2.127648579E0,4.515208232E-1,2.486911732E0
9.481537542E0,-1.166828256E0,2.624749618E0,9.079861982E-1,3.012513514E0
9.491546542E0,-1.162765610E0,3.041277779E0,1.553460188E0,3.607579929E0
9.501555542E0,-1.261116947E0,3.389088877E0,2.072925657E0,4.168136292E0
9.511563542E0,-1.468342270E0,3.523090687E0,2.278044813E0,4.444961775E0
9.521572542E0,-1.822337968E0,3.426342657E0,2.163150533E0,4.442967466E0
9.531581542E0,-2.261615306E0,3.252900208E0,1.770513511E0,4.339467899E0
9.541589542E0,-2.484310023E0,2.955603790E0,1.154813470E0,4.030010447E0
9.551598542E0,-2.469391437E0,2.580713652E0,3.267693809E-1,3.586747168E0
9.561607542E0,-2.078007472E0,2.034541025E0,-6.685109230E-1,2.984020625E0
9.571616542E0,-1.411230760E0,1.365334210E0,-1.464290149E0,2.449460227E0
9.581624542E0,-4.783197820E-1,7.352797669E-1,-1.943005203E0,2.131829113E0
9.591633542E0,6.521844006E-1,2.474313623E-1,-2.260700802E0,2.365868738E0
9.601642542E0,1.688109285E0,-1.163478971E-1,-2.424515226E0,2.956606817E0
9.611650542E0,2.329908446E0,-4.828151214E-1,-2.272582344E0,3.290321309E0
9.621659542E0,2.328450735E0,-7.702314985E-1,-1.712793452E0,2.991421200E0
9.631668542E0,1.823051328E0,-9.225502968E-1,-8.294836736E-1,2.205143614E0
9.641676542E0,1.213828175E0,-1.158317633E0,9.382296056E-3,1.677845823E0
9.651685542E0,4.720036197E-1,-1.350001057E0,6.412875295E-1,1.567335307E0
9.661694542E0,-2.159552157E-1,-1.454817075E0,1.118198133E0,1.847565003E0
9.671703542E0,-6.871565974E-1,-1.412331791E0,1.267791982E0,2.018455297E0
9.681711542E0,-8.069929433E-1,-1.319476252E0,1.005403150E0,1.844746781E0
9.691720542E0,-5.790737396E-1,-1.197585195E0,4.169778851E-1,1.394061423E0
9.701729542E0,-3.454944313E-2,-1.020420408E0,-3.180193882E-1,1.069386648E0
9.711737542E0,6.261186826E-1,-8.772378838E-1,-8.946533771E-1,1.400705385E0
9.721746542E0,1.046917065E0,-6.954292381E-1,-1.224635145E0,1.754818625E0
9.731755542E0,1.205007650E0,-5.180440110E-1,-1.230811998E0,1.798697086E0
9.741764542E0,1.169925526E0,-4.191143847E-1,-8.923016270E-1,1.529896989E0
9.751772542E0,9.985857350E-1,-4.056745595E-1,-3.873266546E-1,1.145324083E0
9.761781542E0,8.218606585E-1,-5.182492483E-1,8.700547256E-2,9.755035508E-1
9.771790542E0,5.905401295E-1,-5.743287241E-1,4.967922326E-1,9.619738304E-1
9.781798542E0,4.702389300E-1,-5.926404494E-1,7.314281329E-1,1.052299609E0
9.791807542E0,4.993650806E-1,-6.539637083E-1,8.312775993E-1,1.169639458E0
9.801816542E0,6.172794467E-1,-7.202062297E-1,8.229616892E-1,1.255785360E0
9.811824542E0,7.981215477E-1,-7.890414065E-1,6.881332286E-1,1.316476998E0
9.821833542E0,9.743221289E-1,-8.765800720E-1,4.733940145E-1,1.393484168E0
9.831842542E0,1.048471255E0,-8.955162799E-1,1.589518066E-1,1.387986692E0
9.841851542E0,9.849336559E-1,-8.878973579E-1,-1.875611365E-1,1.339266667E0
9.851859542E0,8.846878213E-1,-9.338365924E-1,-4.255170858E-1,1.354912585E0
9.861868542E0,7.300272131E-1,-9.840425402E-1,-5.113003441E-1,1.327669949E0
9.871877542E0,6.334154230E-1,-1.020258440E0,-5.493365550E-1,1.320572994E0
9.881885542E0,4.926770353E-1,-1.079967282E0,-5.193169498E-1,1.295665885E0
9.891894542E0,1.813262504E-1,-1.143834665E0,-5.029927663E-1,1.262631646E0
9.901903542E0,-8.299362481E-2,-1.228088365E0,-5.169301164E-1,1.335030231E0
9.911912542E0,-2.094741619E-1,-1.298128068E0,-5.201437461E-1,1.414059907E0
9.921920542E0,-2.517618102E-1,-1.279362014E0,-4.646127756E-1,1.384202371E0
9.931929542E0,-1.587337786E-1,-1.240372195E0,-3.377152590E-1,1.295288073E0
9.941938542E0,1.227617079E-1,-1.158554446E0,-2.842857778E-1,1.199223600E0
9.951946542E0,3.672788179E-1,-9.445194554E-1,-2.877087744E-1,1.053464319E0
9.961955542E0,3.975668103E-1,-7.697333157E-1,-3.176312427E-1,9.227341720E-1
9.971964542E0,2.807762790E-1,-6.970845848E-1,-3.286052970E-1,8.202095333E-1
9.981973542E0,1.424568844E-1,-5.550177097E-1,-4.605360603E-1,7.351408606E-1
9.991981542E0,-1.453617811E-3,-3.479052383E-1,-4.975489354E-1,6.071203431E-1
1.000199054E1,-1.720777094E-1,-1.442782921E-1,-4.837635398E-1,5.333424098E-1
1.001199954E1,-2.803032392E-1,-3.762332439E-2,-4.364923096E-1,5.201066783E-1
1.002200754E1,-4.938833159E-1,-5.930596948E-2,-3.774015176E-1,6.243955744E-1
1.003201654E1,-9.423501384E-1,-8.163765550E-2,-3.463925636E-1,1.007311421E0
1.004202554E1,-1.462029616E0,5.894227266E-2,-2.986138499E-1,1.493377052E0
1.005203354E1,-1.989333277E0,3.624308914E-1,-2.352334857E-1,2.035715558E0
1.006204254E1,-2.556215572E0,7.698338878E-1,-2.312012458E-1,2.679614951E0
1.007205154E1,-3.002993134E0,1.205830353E0,-2.658764040E-1,3.246950087E0
1.008206054E1,-3.038331367E0,1.547847446E0,-2.041917690E-1,3.415989386E0
1.009206854E1,-2.714918945E0,1.785199378E0,-7.320011417E-2,3.250089223E0
1.010207754E1,-2.188588845E0,1.968360484E0,1.729185390E-1,2.948603898E0
1.011208654E1,-1.482410086E0,2.081044516E0,3.003732222E-1,2.572646500E0
1.012209454E1,-7.589528042E-1,2.270545759E0,3.612357205E-1,2.421131687E0
1.013210354E1,-1.745855802E-1,2.772064369E0,3.886538994E-1,2.804616345E0
1.014211254E1,2.356667644E-1,3.198042215E0,4.664037412E-1,3.240454487E0
1.015212125E1,2.987512046E-1,3.280757512E0,6.998041248E-1,3.367840250E0
1.016212925E1,-4.233384132E-3,3.033287559E0,1.109653012E0,3.229888720E0
1.017213825E1,-3.808215541E-1,2.517480108E0,1.628630238E0,3.022443978E0
1.018214725E1,-4.550379235E-1,1.938706330E0,2.073377062E0,2.874810287E0
1.019215525E1,1.098224044E-2,1.318945325E0,2.295444957E0,2.647414764E0
1.020216425E1,9.893570745E-1,8.142247796E-1,2.327001795E0,2.656450031E0
1.021217325E1,2.221903356E0,5.420643729E-1,2.334221352E0,3.267916405E0
1.022218125E1,3.303194448E0,3.824745619E-1,2.244668906E0,4.011971940E0
1.023219025E1,3.759670787E0,2.882238775E-1,2.047425950E0,4.290705122E0
1.024219925E1,3.364757443E0,2.292693257E-1,1.808111107E0,3.826672556E0
1.025220825E1,2.232921265E0,1.473439872E-1,1.595424485E0,2.748277081E0
1.026221625E1,9.530721778E-1,-3.551481843E-2,1.494534287E0,1.772918671E0
1.027222525E1,-2.335225904E-1,-1.936498421E-1,1.458951641E0,1.490158701E0
1.028223425E1,-1.157069253E0,-2.790057421E-1,1.308943663E0,1.769176919E0
1.029224225E1,-1.743274257E0,-3.136399698E-1,1.005068543E0,2.036550500E0
1.030225125E1,-1.982791997E0,-3.320820880E-1,6.042886877E-1,2.099263546E0
1.031226025E1,-1.769632335E0,-3.573794818E-1,1.217133204E-1,1.809456501E0
1.032226925E1,-1.341934823E0,-3.253262150E-1,-2.117861327E-1,1.396953679E0
1.033227725E1,-8.989942038E-1,-2.500444829E-1,-3.533285308E-1,9.977744598E-1
1.034228625E1,-4.860766983E-1,-1.963021392E-1,-4.077847831E-1,6.641487151E-1
1.035229525E1,-1.583502012E-1,-1.195451546E-1,-4.353696442E-1,4.784480717E-1
1.036230325E1,4.659646153E-3,-1.266594619E-1,-3.843889403E-1,4.047458326E-1
1.037231225E1,1.348052180E-1,-2.447808194E-1,-2.873520394E-1,4.008257613E-1
1.038232125E1,4.065060335E-1,-4.413437444E-1,-1.367593757E-1,6.154141556E-1
1.039232925E1,6.412916225E-1,-5.710572070E-1,1.119776881E-1,8.659678293E-1
1.040233825E1,9.301937771E-1,-6.560230976E-1,3.944134068E-1,1.204652939E0
1.041234725E1,1.291402600E0,-7.689187986E-1,6.073549676E-1,1.621060410E0
1.042235625E1,1.592122563E0,-7.587914211E-1,7.376309323E-1,1.911731693E0
1.043236425E1,2.001448708E0,-7.633516645E-1,8.824150085E-1,2.316712961E0
1.044237325E1,2.445617827E0,-8.255853349E-1,9.624516964E-1,2.754805069E0
1.045238225E1,2.764593381E0,-8.904075676E-1,9.381541765E-1,3.052201740E0
1.046239025E1,2.743764430E0,-9.233040029E-1,7.288718033E-1,2.985295234E0
1.047239925E1,2.280700618E0,-1.039854214E0,3.853198902E-1,2.536013311E0
1.048240825E1,1.565363365E0,-1.250810645E0,7.070449512E-2,2.004966049E0
1.049241725E1,7.087462717E-1,-1.392501544E0,-1.092728027E-1,1.566308518E0
1.050242525E1,-4.885933399E-3,-1.486003200E0,-1.066076418E-1,1.489830383E0
1.051243425E1,-5.679558438E-1,-1.519114228E0,-1.771117967E-2,1.621911084E0
1.052244325E1,-8.912501514E-1,-1.449313091E0,2.364239788E-1,1.717769358E0
1.053245125E1,-8.048470151E-1,-1.369819610E0,5.993185909E-1,1.698048072E0
1.054246025E1,-3.194146800E-1,-1.333552254E0,9.565412577E-1,1.671932574E0
1.055246925E1,3.028419167E-1,-1.338294931E0,1.224458486E0,1.839033750E0
1.056247825E1,7.637095141E-1,-1.390759658E0,1.278001367E0,2.037339477E0
1.057248625E1,8.322254330E-1,-1.325548001E0,1.104087705E0,1.915381511E0
1.058249525E1,5.567128175E-1,-1.162144051E0,8.601651105E-1,1.549319842E0
1.059250425E1,2.223292655E-1,-1.023438156E0,6.742531081E-1,1.245581476E0
1.060251225E1,-1.081816757E-1,-9.360667205E-1,5.593306891E-1,1.095798795E0
1.061252125E1,-3.481496519E-1,-8.031232560E-1,5.098421216E-1,1.012992662E0
1.062253025E1,-4.850785786E-1,-6.010873371E-1,4.338505375E-1,8.859082928E-1
1.063253825E1,-6.504021692E-1,-4.245739299E-1,3.235474920E-1,8.414089275E-1
1.064254725E1,-8.219670779E-1,-3.275288612E-1,3.878575087E-2,8.856688808E-1
1.065255625E1,-9.992037857E-1,-2.931127346E-1,-3.235813328E-1,1.090425678E0
1.066256525E1,-1.104840168E0,-1.644634652E-1,-5.543019374E-1,1.246984630E0
1.067257325E1,-1.211449528E0,7.686515808E-2,-6.035016525E-1,1.355629911E0
1.068258225E1,-1.338328260E0,3.793006933E-1,-5.570151917E-1,1.498418323E0
1.069259125E1,-1.487928103E0,6.809041697E-1,-4.036870909E-1,1.685385355E0
1.070259925E1,-1.518578038E0,1.031556430E0,-2.230080541E-1,1.849302711E0
1.071260825E1,-1.535396385E0,1.518876246E0,1.151913178E-1,2.162798222E0
1.072261725E1,-1.636808154E0,2.185619044E0,5.091580705E-1,2.777645312E0
1.073262625E1,-1.950551035E0,2.878370842E0,7.928238972E-1,3.566263840E0
1.074263425E1,-2.423457465E0,3.260115087E0,8.205421845E-1,4.144247331E0
1.075264325E1,-2.790384280E0,3.192111384E0,7.251681769E-1,4.301358902E0
1.076265225E1,-3.127845222E0,3.209783424E0,6.075351349E-1,4.522745217E0
1.077266025E1,-3.031380197E0,3.301111670E0,5.631616386E-1,4.517051603E0
1.078266925E1,-2.305836044E0,3.175002431E0,2.836273082E-1,3.934204462E0
1.079267825E1,-1.077867547E0,2.735844376E0,-2.661816287E-1,2.952540526E0
1.080268625E1,3.979351848E-1,2.181125459E0,-8.126542175E-1,2.361369848E0
1.081269525E1,2.023575157E0,1.871026563E0,-1.139401306E0,2.982252865E0
1.082270425E1,3.561591679E0,1.692494112E0,-1.269120616E0,4.142479782E0
1.083271325E1,4.552108841E0,1.561674356E0,-1.369491581E0,5.003601591E0
1.084272125E1,4.688421471E0,1.332320246E0,-1.448666389E0,5.084781946E0
1.085273025E1,3.999332954E0,9.978700358E-1,-1.397663466E0,4.352455841E0
1.086273925E1,2.813194268E0,7.015226215E-1,-1.230133721E0,3.149511859E0
1.087274725E1,1.437254963E0,4.734122139E-1,-8.540595210E-1,1.737595643E0
1.088275625E1,9.393201113E-2,3.180382454E-1,-5.384687007E-1,6.323923544E-1
1.089276525E1,-1.106652220E0,2.172187990E-1,-4.810422456E-1,1.226076990E0
1.090277425E1,-1.819592700E0,9.867176414E-2,-6.122233593E-1,1.922360828E0
1.091278225E1,-1.874823160E0,-5.141164362E-2,-8.164303493E-1,2.045522807E0
1.092279125E1,-1.264727018E0,-2.277923191E-1,-8.984526785E-1,1.568005416E0
1.093280025E1,-3.100129420E-1,-3.436127973E-1,-7.799120756E-1,9.068851219E-1
1.094280825E1,5.874036831E-1,-4.247633797E-1,-5.724821004E-1,9.236897590E-1
1.095281725E1,1.117340346E0,-6.351543850E-1,-3.516503799E-1,1.332489599E0
1.096282625E1,1.262302178E0,-9.588965893E-1,-1.608919859E-2,1.585291241E0
1.097283525E1,1.083146998E0,-1.306659155E0,4.792706124E-1,1.763594593E0
1.098284325E1,7.583043480E-1,-1.609264260E0,9.933671681E-1,2.037531662E0
1.099285225E1,4.184589118E-1,-1.799161359E0,1.444923002E0,2.345184841E0
1.100286125E1,2.554642671E-1,-1.864226251E0,1.777299789E0,2.588319155E0
1.101286925E1,2.860294175E-1,-1.879820775E0,1.848804220E0,2.652096533E0
1.102287825E1,5.244262469E-1,-1.851413248E0,1.574323053E0,2.486211370E0
1.103288725E1,7.281140041E-1,-1.855554830E0,1.029573127E0,2.243491599E0
1.104289625E1,8.212964022E-1,-1.863156211E0,3.826583107E-1,2.071788172E0
1.105290425E1,8.727080458E-1,-1.866602560E0,-1.775974079E-1,2.068179221E0
1.106291325E1,8.576695919E-1,-1.849776027E0,-6.232313275E-1,2.132061389E0
1.107292225E1,6.779331994E-1,-1.785543779E0,-9.587456580E-1,2.137043108E0
1.108293025E1,4.954304892E-1,-1.719283715E0,-1.250037643E0,2.182654799E0
1.109293925E1,3.855811876E-1,-1.704456346E0,-1.285145495E0,2.169203363E0
1.110294825E1,3.675390190E-1,-1.681119524E0,-1.115165766E0,2.050571255E0
1.111295625E1,4.356672674E-1,-1.674168354E0,-8.268652904E-1,1.917381509E0
1.112296525E1,5.474321169E-1,-1.721589857E0,-5.555310953E-1,1.890018084E0
1.113297425E1,5.082820845E-1,-1.740993842E0,-3.490706249E-1,1.846959810E0
1.114298325E1,4.652927703E-1,-1.721142545E0,-1.812800574E-1,1.792119271E0
1.115299142E1,6.493461621E-1,-1.678729182E0,2.655918639E-2,1.800135410E0
1.116300042E1,8.806012022E-1,-1.532628897E0,2.641433259E-1,1.787227325E0
1.117300942E1,9.469326013E-1,-1.219186563E0,5.395061795E-1,1.635287175E0
1.118301742E1,7.746864921E-1,-9.533955288E-1,7.468473136E-1,1.437665853E0
1.119302642E1,3.206724161E-1,-9.411561370E-1,5.763027076E-1,1.149230387E0
1.120303542E1,-3.070688689E-1,-1.041368058E0,1.978931483E-1,1.103585257E0
1.121304442E1,-7.760091323E-1,-1.037735767E0,-9.950208703E-2,1.299610081E0
1.122305242E1,-9.653045529E-1,-8.417780292E-1,-2.291453648E-1,1.301119029E0
1.123306142E1,-1.109142550E0,-4.520342088E-1,-2.180497066E-1,1.217406175E0
1.124307042E1,-1.256498816E0,-9.438341618E-2,-1.973341727E-1,1.275397303E0
1.125307842E1,-1.471379313E0,1.984410506E-1,-5.039364338E-2,1.485555604E0
1.126308742E1,-1.588661596E0,4.224262476E-1,7.724171877E-2,1.645677940E0
1.127309642E1,-1.776819148E0,6.789792663E-1,1.988345683E-1,1.912494265E0
1.128310442E1,-1.922172158E0,9.986599946E-1,3.341239357E-1,2.191735932E0
1.129311342E1,-2.101503339E0,1.376385448E0,4.409934962E-1,2.550534934E0
1.130312242E1,-2.199138976E0,1.655131574E0,5.197554910E-1,2.801038831E0
1.131313142E1,-2.015944541E0,1.730229118E0,6.064737922E-1,2.724983606E0
1.132313942E1,-1.698378165E0,1.721847135E0,6.580737162E-1,2.506453064E0
1.133314842E1,-1.364958819E0,1.788102520E0,6.133454400E-1,2.331655169E0
1.134315742E1,-1.136325670E0,2.025722255E0,3.778324574E-1,2.353198684E0
1.135316542E1,-1.378948867E0,2.415946716E0,7.880994201E-2,2.782895887E0
1.136317442E1,-2.070566306E0,2.653780459E0,-1.214630413E-1,3.368166982E0
1.137318342E1,-2.796686994E0,2.682500812E0,-1.931043426E-2,3.875260203E0
1.138319242E1,-3.196796758E0,2.462275375E0,4.768620712E-1,4.063213872E0
1.139320042E1,-3.157790567E0,2.008878765E0,1.293987070E0,3.960004760E0
1.140320942E1,-2.422020804E0,1.338056365E0,2.174959570E0,3.519521095E0
1.141321842E1,-1.120553391E0,8.355788112E-1,2.771757975E0,3.104267083E0
1.142322642E1,3.672864193E-1,7.477489543E-1,3.071461691E0,3.182436917E0
1.143323542E1,1.964118914E0,8.103270257E-1,2.972041483E0,3.653412593E0
1.144324442E1,3.346371458E0,8.393555278E-1,2.588262407E0,4.312982950E0
1.145325342E1,4.211200966E0,8.188487577E-1,1.980801605E0,4.725283257E0
1.146326142E1,4.342573868E0,7.567975205E-1,1.297706484E0,4.595076975E0
1.147327042E1,3.516459360E0,7.630674899E-1,8.001587176E-1,3.686192127E0
1.148327942E1,1.947531533E0,8.163905883E-1,4.952205741E-1,2.169012697E0
1.149328742E1,7.592498428E-1,6.751277053E-1,1.229903523E-1,1.023417984E0
1.150329642E1,1.534894109E-2,5.106683332E-1,-2.613482837E-1,5.738646721E-1
1.151330542E1,-3.982690609E-1,4.027854502E-1,-5.687715304E-1,8.027175204E-1
1.152331442E1,-6.038776284E-1,2.139542985E-1,-6.656505382E-1,9.238697262E-1
1.153332242E1,-6.840207356E-1,-2.799471438E-2,-5.638493443E-1,8.869014341E-1
1.154333142E1,-7.283742052E-1,-2.876999670E-1,-7.688854694E-2,7.869003130E-1
1.155334042E1,-7.267597890E-1,-5.498914558E-1,5.494955993E-1,1.064192566E0
1.156334842E1,-5.485805100E-1,-8.976165998E-1,8.325405979E-1,1.341558789E0
1.157335742E1,-2.113154501E-1,-1.255821124E0,9.442855668E-1,1.585375711E0
1.158336642E1,1.238720942E-1,-1.477124203E0,1.167463263E0,1.886852055E0
1.159337542E1,5.131691873E-1,-1.547960882E0,1.386740867E0,2.140695153E0
1.160338342E1,9.828421068E-1,-1.554664714E0,1.548736807E0,2.404484701E0
1.161339242E1,1.437453768E0,-1.582495122E0,1.566150985E0,2.650168495E0
1.162340142E1,1.647194563E0,-1.600727910E0,1.392018564E0,2.685757892E0
1.163340942E1,1.531491614E0,-1.547692494E0,1.117159667E0,2.447215631E0
1.164341842E1,1.318127884E0,-1.420555315E0,7.864832497E-1,2.091409674E0
1.165342742E1,1.141591088E0,-1.333363974E0,4.109446549E-1,1.802765989E0
1.166343542E1,1.000186703E0,-1.266644320E0,1.266132689E-1,1.618886096E0
1.167344442E1,7.313995546E-1,-1.209533980E0,2.285910487E-2,1.413662016E0
1.168345342E1,4.448263460E-1,-1.253005105E0,5.928491950E-2,1.330942137E0
1.169346242E1,2.867404389E-1,-1.375649868E0,2.102413166E-1,1.420856802E0
1.170347042E1,2.249751306E-1,-1.412143511E0,4.705359685E-1,1.505379421E0
1.171347942E1,2.847523856E-1,-1.386482420E0,7.261341369E-1,1.590813693E0
1.172348842E1,4.035315549E-1,-1.350081164E0,9.540996066E-1,1.701723516E0
1.173349642E1,4.532059908E-1,-1.331579404E0,1.051552738E0,1.756206861E0
1.174350542E1,4.019744414E-1,-1.361088547E0,9.502052879E-1,1.707933129E0
1.175351442E1,2.686678648E-1,-1.410896884E0,7.543890524E-1,1.622317873E0
1.176352342E1,1.464177883E-1,-1.477210742E0,5.297425354E-1,1.576139873E0
1.177353142E1,2.925361991E-3,-1.525635043E0,4.696319890E-1,1.596284764E0
1.178354042E1,-2.784256983E-1,-1.438009838E0,4.843962451E-1,1.542735521E0
1.179354942E1,-5.214447516E-1,-1.344861939E0,4.456865080E-1,1.509700211E0
1.180355742E1,-6.795458615E-1,-1.137236082E0,3.803111287E-1,1.378305133E0
1.181356642E1,-4.151528960E-1,-8.835511225E-1,3.718770683E-1,1.044656435E0
1.182357542E1,8.020567238E-2,-5.794637489E-1,4.090407650E-1,7.138105726E-1
1.183358442E1,3.520041364E-1,-2.160861933E-1,3.938357019E-1,5.707072061E-1
1.184359242E1,3.166811067E-1,5.786346138E-2,2.614220317E-1,4.147005934E-1
1.185360142E1,4.111721116E-1,3.590161175E-1,-1.794744372E-2,5.461475888E-1
1.186361042E1,4.638613719E-1,8.043429852E-1,-2.937372537E-1,9.738668206E-1
1.187361842E1,2.878800613E-1,1.343225888E0,-5.662759022E-1,1.485866452E0
1.188362742E1,-1.942994678E-1,1.762417456E0,-5.880602888E-1,1.868069184E0
1.189363642E1,-8.506728137E-1,1.965118203E0,-2.055155969E-1,2.151178851E0
1.190364442E1,-1.412185611E0,2.145283197E0,4.893897672E-1,2.614576550E0
1.191365342E1,-1.586446086E0,2.461142185E0,9.999440432E-1,3.094175193E0
1.192366242E1,-1.707167115E0,2.875069504E0,1.085270122E0,3.515431048E0
1.193367142E1,-2.022126802E0,3.104759830E0,1.000850362E0,3.837998417E0
1.194367942E1,-2.383748438E0,3.236316919E0,1.121058590E0,4.172861870E0
1.195368842E1,-2.602286954E0,3.154134888E0,1.241715885E0,4.273443883E0
1.196369742E1,-2.729983712E0,2.974201444E0,1.056983632E0,4.173236118E0
1.197370542E1,-2.674183733E0,2.788167016E0,5.025506437E-1,3.895855631E0
1.198371442E1,-1.829723586E0,2.460608919E0,-2.237285042E-1,3.074498186E0
1.199372342E1,-3.470421892E-1,2.268330833E0,-7.510292423E-1,2.414499529E0
1.200373242E1,1.270473077E0,2.442933370E0,-9.358269846E-1,2.908229261E0
1.201374042E1,2.471560754E0,2.536924438E0,-1.014336380E0,3.684219925E0
1.202374942E1,3.182899681E0,2.158842305E0,-1.292365637E0,4.057297058E0
1.203375842E1,3.206283866E0,1.686102521E0,-1.486106111E0,3.915572667E0
1.204376642E1,2.437995397E0,1.382233833E0,-1.358911629E0,3.114648092E0
1.205377542E1,1.182054405E0,1.145635023E0,-1.064134777E0,1.960131384E0
1.206378442E1,-1.607212472E-1,8.587016255E-1,-6.968197060E-1,1.117478189E0
1.207379342E1,-1.291837049E0,5.571063352E-1,-4.343452120E-1,1.472367546E0
1.208380142E1,-1.842038991E0,2.646104819E-1,-4.224133837E-1,1.908287038E0
1.209381042E1,-1.618939648E0,-8.898643613E-2,-6.650178695E-1,1.752464817E0
1.210381942E1,-7.026072800E-1,-3.772839886E-1,-9.430108738E-1,1.235018099E0
1.211382742E1,5.422883213E-1,-4.704517686E-1,-1.130573180E0,1.339252480E0
1.212383642E1,1.588561608E0,-4.179162902E-1,-1.145032175E0,2.002318828E0
1.213384542E1,2.114615135E0,-4.901685798E-1,-1.040405606E0,2.407136521E0
1.214385342E1,2.112546390E0,-7.664898652E-1,-8.454851639E-1,2.401083948E0
1.215386204E1,1.779876657E0,-1.163582466E0,-3.141744053E-1,2.149555914E0
1.216387104E1,1.302435712E0,-1.548657870E0,4.337698460E-1,2.069501452E0
1.217388004E1,9.821082813E-1,-1.824997281E0,1.115522447E0,2.353623182E0
1.218388804E1,8.833125561E-1,-1.981367031E0,1.633599787E0,2.715640743E0
1.219389704E1,8.689827847E-1,-2.020439880E0,1.980151395E0,2.959443856E0
1.220390604E1,1.025180626E0,-2.011158010E0,2.028762807E0,3.035066784E0
1.221391404E1,1.278887805E0,-1.946766132E0,1.769588481E0,2.925217220E0
1.222392304E1,1.570494297E0,-1.829990219E0,1.269250424E0,2.725126268E0
1.223393204E1,1.749223799E0,-1.688984613E0,5.530728893E-1,2.493660471E0
1.224394104E1,1.616541120E0,-1.560774470E0,-1.399355650E-1,2.251400475E0
1.225394904E1,1.335760163E0,-1.487739823E0,-6.757428324E-1,2.110510215E0
1.226395804E1,9.431447750E-1,-1.568782817E0,-1.085853674E0,2.128304441E0
1.227396704E1,3.911126536E-1,-1.636883583E0,-1.298294713E0,2.125541375E0
1.228397504E1,-2.807546443E-1,-1.648561642E0,-1.300611380E0,2.118529825E0
1.229398404E1,-7.605450010E-1,-1.797003736E0,-1.303846060E0,2.346841638E0
1.230399304E1,-1.002017466E0,-1.920331455E0,-1.133050060E0,2.444486518E0
1.231400204E1,-9.666821569E-1,-1.961435042E0,-8.576368475E-1,2.348881176E0
1.232401004E1,-6.697125989E-1,-1.874546002E0,-5.795280683E-1,2.073231888E0
1.233401904E1,-1.700370312E-1,-1.769182100E0,-4.398322392E-1,1.830947922E0
1.234402804E1,2.687836397E-1,-1.696439813E0,-3.937994492E-1,1.762166477E0
1.235403604E1,4.391615635E-1,-1.574207278E0,-3.262120682E-1,1.666555054E0
1.236404504E1,3.137867349E-1,-1.422520564E0,-2.237413681E-1,1.473800214E0
1.237405404E1,8.649610698E-2,-1.273615955E0,-1.369920766E-1,1.283879280E0
1.238406304E1,-1.817817485E-1,-1.067822031E0,-7.540333590E-2,1.085805764E0
1.239407104E1,-4.195552647E-1,-8.710831046E-1,-8.311407745E-2,9.704227662E-1
1.240408004E1,-6.079233170E-1,-6.515412068E-1,-2.156178313E-1,9.168248212E-1
1.241408904E1,-6.395836508E-1,-4.240658069E-1,-3.506914365E-1,8.437319116E-1
1.242409704E1,-5.792514950E-1,-1.219542074E-1,-3.812285203E-1,7.040882813E-1
1.243410604E1,-5.511942154E-1,2.249049640E-1,-3.058128870E-1,6.692673814E-1
1.244411504E1,-5.302974361E-1,4.826087147E-1,-2.189811498E-1,7.497194717E-1
1.245412404E1,-6.334540147E-1,7.129550976E-1,-7.744112710E-2,9.568521767E-1
1.246413204E1,-6.518183649E-1,9.024259347E-1,8.584882021E-2,1.116516802E0
1.247414104E1,-7.339156115E-1,1.141957124E0,2.425010266E-1,1.378950668E0
1.248415004E1,-1.108118702E0,1.502496441E0,3.623741369E-1,1.901772234E0
1.249415804E1,-1.641206430E0,1.819505576E0,3.996963662E-1,2.482723559E0
1.250416704E1,-2.187866714E0,2.032773412E0,4.188266651E-1,3.015683053E0
1.251417604E1,-2.550175399E0,2.155325789E0,4.049004247E-1,3.363445878E0
1.252418404E1,-2.508482412E0,2.249241428E0,2.813036978E-1,3.380932236E0
1.253419304E1,-2.239774786E0,2.630189282E0,-3.629538517E-2,3.454823311E0
1.254420204E1,-2.155137509E0,3.344507951E0,-4.735361383E-1,4.006817639E0
1.255421104E1,-2.480962492E0,3.935188998E0,-6.648395294E-1,4.699244507E0
1.256421904E1,-2.920670770E0,4.102908193E0,-6.704201120E-1,5.080712205E0
1.257422804E1,-3.117043660E0,3.964314564E0,-2.020586864E-1,5.047036641E0
1.258423704E1,-2.758817502E0,3.546301210E0,9.464607310E-1,4.591635242E0
1.259424504E1,-1.821268512E0,2.783436618E0,1.927229415E0,3.844314194E0
1.260425404E1,-3.340865135E-1,2.186111380E0,2.466530979E0,3.312774039E0
1.261426304E1,1.346467000E0,1.786440157E0,2.765030168E0,3.556646404E0
1.262427204E1,2.933052249E0,1.420675768E0,2.774664041E0,4.280172388E0
1.263428004E1,4.196719167E0,1.135899993E0,2.634009853E0,5.083377663E0
1.264428904E1,4.965408170E0,9.348785663E-1,2.523993906E0,5.647992693E0
1.265429804E1,4.931698387E0,7.790426677E-1,2.425116904E0,5.550652976E0
1.266430604E1,4.022140018E0,5.483887213E-1,2.151286533E0,4.594167418E0
1.267431504E1,2.594439406E0,2.454257673E-1,1.680861661E0,3.101071680E0
1.268432404E1,1.253041942E0,6.911701262E-2,1.248183491E0,1.769986807E0
1.269433304E1,1.944514954E-1,1.013556361E-2,7.152828741E-1,7.413121500E-1
1.270434104E1,-5.649041820E-1,4.594742060E-3,6.823700666E-2,5.690291166E-1
1.271435004E1,-9.857604522E-1,8.393853486E-2,-4.653588438E-1,1.093310660E0
1.272435904E1,-1.133802597E0,1.316974229E-1,-7.673289406E-1,1.375371311E0
1.273436704E1,-1.023113050E0,-3.520023823E-3,-8.141534436E-1,1.307523818E0
1.274437604E1,-6.861760193E-1,-2.682866263E-1,-5.564444304E-1,9.232798316E-1
1.275438504E1,-2.075580293E-1,-5.574407959E-1,-1.301321232E-1,6.088964986E-1
1.276439404E1,2.717370683E-1,-8.438473588E-1,1.994227982E-1,9.086742275E-1
1.277440204E1,6.647798878E-1,-1.115786156E0,3.916359794E-1,1.356572809E0
1.278441104E1,9.538165283E-1,-1.348088433E0,5.294022274E-1,1.734178512E0
1.279442004E1,1.086344841E0,-1.484415681E0,7.113243091E-1,1.972211271E0
1.280442804E1,1.146976959E0,-1.580448012E0,8.570065176E-1,2.132564708E0
1.281443704E1,1.226530082E0,-1.717444766E0,9.028592134E-1,2.295462334E0
1.282444604E1,1.211302763E0,-1.764211966E0,8.137792218E-1,2.289527215E0
1.283445404E1,1.009847472E0,-1.651541968E0,6.038080466E-1,2.027798547E0
1.284446304E1,7.547088951E-1,-1.488580652E0,2.821281735E-1,1.692647093E0
1.285447204E1,4.567815632E-1,-1.378034363E0,-2.328710278E-2,1.451953991E0
1.286448104E1,2.591140991E-1,-1.380497210E0,-2.371958113E-1,1.424490967E0
1.287448904E1,2.099512947E-1,-1.459717627E0,-2.738823934E-1,1.499955553E0
1.288449804E1,1.935527784E-1,-1.546616607E0,-2.264789979E-1,1.575048679E0
1.289450704E1,1.897591048E-1,-1.576088328E0,-1.801035611E-1,1.597654602E0
1.290451504E1,1.153883690E-1,-1.543040450E0,-2.092484593E-1,1.561433067E0
1.291452404E1,4.703792632E-2,-1.494056570E0,-2.036935679E-1,1.508611504E0
1.292453304E1,-2.142536759E-2,-1.459171497E0,-1.203765921E-1,1.464285159E0
1.293454204E1,-7.727797151E-2,-1.480638964E0,1.051449973E-2,1.482691533E0
1.294455004E1,-9.677726626E-3,-1.454206041E0,1.923827140E-1,1.466908306E0
1.295455904E1,7.954961479E-2,-1.311550351E0,3.283902291E-1,1.354375357E0
1.296456804E1,2.674469662E-1,-1.128160619E0,3.392624688E-1,1.208045232E0
1.297457604E1,5.437980723E-1,-9.123533374E-1,2.866726478E-1,1.100130066E0
1.298458504E1,7.414789850E-1,-6.672012198E-1,2.206821414E-1,1.021591484E0
1.299459404E1,8.586033922E-1,-5.018992639E-1,1.276868176E-1,1.002699646E0
1.300460304E1,9.014324927E-1,-3.554855686E-1,1.054229228E-1,9.747125326E-1
1.301461104E1,9.278268242E-1,-1.351490343E-1,1.290796610E-1,9.464615344E-1
1.302462004E1,9.478359962E-1,1.387772316E-1,1.133868670E-1,9.646288287E-1
1.303462904E1,8.372055066E-1,4.000232255E-1,-5.426797193E-2,9.294496511E-1
1.304463704E1,6.376488072E-1,5.170722038E-1,-4.323887336E-1,9.278575764E-1
1.305464604E1,4.288195932E-1,5.175487518E-1,-9.045046198E-1,1.126885780E0
1.306465504E1,1.269225866E-1,6.950064844E-1,-1.231632947E0,1.419881358E0
1.307466404E1,-2.311398500E-1,9.827543986E-1,-1.259914759E0,1.614502103E0
1.308467204E1,-5.984204221E-1,1.190078539E0,-1.108543210E0,1.732992204E0
1.309468104E1,-9.361684620E-1,1.333503723E0,-9.819463134E-1,1.902330710E0
1.310469004E1,-1.432256178E0,1.597104390E0,-7.721493852E-1,2.279981330E0
1.311469804E1,-1.939802098E0,2.023206198E0,-5.669822824E-1,2.859661590E0
1.312470704E1,-2.253414586E0,2.374811554E0,-2.494468975E-1,3.283265291E0
1.313471604E1,-2.490415685E0,2.568017008E0,1.587799716E-1,3.580794984E0
1.314472504E1,-2.815636650E0,2.669047539E0,4.753277618E-1,3.908652068E0
1.315473363E1,-3.101337454E0,2.850806483E0,6.071538234E-1,4.256057727E0
1.316474262E1,-3.174352806E0,2.955466965E0,6.013644952E-1,4.378691582E0
1.317475163E1,-3.033553022E0,2.691730642E0,5.539371443E-1,4.093251049E0
1.318475963E1,-2.621411442E0,2.217363578E0,4.504887897E-1,3.462865769E0
1.319476863E1,-1.724303550E0,2.038139402E0,2.430038506E-1,2.680724869E0
1.320477762E1,-4.892751253E-1,2.093863952E0,-4.049430728E-2,2.150650177E0
1.321478563E1,7.536441171E-1,1.929647239E0,-3.383719379E-1,2.099050616E0
1.322479462E1,1.788622922E0,1.546385057E0,-5.733358669E-1,2.432939111E0
1.323480363E1,2.504208682E0,1.156665795E0,-6.196867454E-1,2.827180317E0
1.324481263E1,2.614267314E0,8.691201943E-1,-5.220891148E-1,2.803986545E0
1.325482063E1,2.016697077E0,6.400865114E-1,-3.634746194E-1,2.146832933E0
1.326482962E1,8.784336394E-1,3.541038716E-1,-1.985632575E-1,9.677099658E-1
1.327483863E1,-9.368058085E-2,-9.315199256E-3,-1.543746976E-1,1.808158495E-1
1.328484662E1,-4.001144421E-1,-2.685380566E-1,-2.350715178E-1,5.361556426E-1
1.329485563E1,-9.946172297E-2,-3.931749666E-1,-5.037288576E-1,6.467008201E-1
1.330486463E1,7.557298189E-1,-5.467170024E-1,-1.020377138E0,1.382460323E0
1.331487363E1,1.747729250E0,-6.718632048E-1,-1.442964769E0,2.363917305E0
1.332488162E1,2.283298536E0,-7.756939673E-1,-1.539375415E0,2.860914190E0
1.333489063E1,2.349825232E0,-1.012115023E0,-1.437001194E0,2.934455294E0
1.334489963E1,2.149758071E0,-1.359564763E0,-1.025011641E0,2.742357557E0
1.335490763E1,1.702602194E0,-1.648251740E0,-3.402067941E-1,2.394019359E0
1.336491662E1,1.216774002E0,-1.913763862E0,3.028121142E-1,2.287952419E0
1.337492563E1,9.672306257E-1,-2.061969729E0,8.234516859E-1,2.421843704E0
1.338493463E1,8.511382520E-1,-2.072563130E0,1.236118346E0,2.558894843E0
1.339494263E1,8.317021072E-1,-2.061431785E0,1.440238212E0,2.648681844E0
1.340495163E1,8.053726798E-1,-1.967179347E0,1.466486948E0,2.582441423E0
1.341496062E1,9.440633726E-1,-1.902619654E0,1.207627788E0,2.443272820E0
1.342496862E1,1.158594207E0,-1.839085563E0,6.965688604E-1,2.282495218E0
1.343497763E1,1.354650178E0,-1.686877862E0,1.005422884E-1,2.165812267E0
1.344498663E1,1.390014138E0,-1.509712490E0,-3.709245569E-1,2.085415099E0
1.345499562E1,1.207282802E0,-1.424214503E0,-7.892507368E-1,2.027026255E0
1.346500363E1,9.114645606E-1,-1.465675939E0,-1.138242972E0,2.067503487E0
1.347501263E1,5.639230192E-1,-1.481404949E0,-1.386494699E0,2.105929093E0
1.348502163E1,3.286562043E-1,-1.461192879E0,-1.494110364E0,2.115529558E0
1.349502963E1,8.905309439E-2,-1.444755771E0,-1.403218321E0,2.016003806E0
1.350503863E1,-1.379942894E-3,-1.492122896E0,-1.182991129E0,1.904179785E0
1.351504762E1,7.665699720E-3,-1.548788263E0,-8.527468210E-1,1.768044396E0
1.352505663E1,7.089573562E-2,-1.530339128E0,-5.018700278E-1,1.612091057E0
1.353506463E1,1.344684184E-1,-1.464665540E0,-2.043023362E-1,1.484946580E0
1.354507363E1,2.515232438E-1,-1.346776317E0,-4.058318496E-2,1.370663119E0
1.355508262E1,4.057792246E-1,-1.208177426E0,-6.259027742E-2,1.276035663E0
1.356509063E1,3.215506679E-1,-1.072788656E0,-2.028328212E-1,1.138161450E0
1.357509962E1,2.381945157E-1,-1.004009027E0,-4.149459046E-1,1.112182925E0
1.358510863E1,1.497758442E-1,-8.987316638E-1,-5.749543031E-1,1.077368952E0
1.359511763E1,-1.468680239E-1,-5.521724546E-1,-6.170128137E-1,8.409336765E-1
1.360512563E1,-4.228057319E-1,-1.286785054E-1,-6.434632784E-1,7.806201607E-1
1.361513462E1,-6.923822540E-1,4.600945956E-1,-6.620023873E-1,1.062698162E0
1.362514363E1,-9.176544231E-1,1.131484176E0,-5.661402833E-1,1.562965419E0
1.363515162E1,-1.003427814E0,1.674458376E0,-3.538442552E-1,1.983906244E0
1.364516063E1,-1.194742863E0,2.111575752E0,8.256268501E-3,2.426155567E0
1.365516963E1,-1.500275084E0,2.607572252E0,4.626743140E-1,3.043735517E0
1.366517763E1,-1.784569048E0,3.041074880E0,9.117836724E-1,3.642001178E0
1.367518662E1,-2.063012872E0,3.383096066E0,1.360969264E0,4.189701474E0
1.368519563E1,-2.164153331E0,3.561868837E0,1.682397140E0,4.494544403E0
1.369520463E1,-1.995686862E0,3.488467569E0,1.818887526E0,4.411408377E0
1.370521263E1,-1.595188842E0,3.300569049E0,1.613367105E0,4.005163780E0
1.371522163E1,-1.018317749E0,3.177602688E0,1.114452552E0,3.517973049E0
1.372523063E1,-5.974784356E-1,3.278829685E0,3.966843192E-1,3.356346680E0
1.373523963E1,-4.006927317E-1,3.405318409E0,-5.871020398E-1,3.478711965E0
1.374524763E1,-7.609315020E-1,3.312417262E0,-1.278823485E0,3.631324052E0
1.375525663E1,-1.648135380E0,2.918307910E0,-1.321754327E0,3.602763632E0
1.376526562E1,-2.557684978E0,2.348248823E0,-7.611959423E-1,3.554637005E0
1.377527362E1,-3.095553973E0,1.642509774E0,2.249077414E-1,3.511534743E0
1.378528263E1,-3.025818325E0,9.792577636E-1,1.013277888E0,3.337851762E0
1.379529163E1,-2.262914557E0,4.927811158E-1,1.419421540E0,2.716316077E0
1.380529963E1,-8.982434213E-1,2.077088875E-1,1.545122058E0,1.799273854E0
1.381530863E1,8.257899874E-1,-6.036899328E-2,1.533894235E0,1.743102132E0
1.382531763E1,2.413511935E0,-4.052892280E-1,1.729911615E0,2.996980717E0
1.383532663E1,3.241348448E0,-6.647103059E-1,2.134826036E0,3.937722915E0
1.384533463E1,3.236544376E0,-8.419341499E-1,2.638968877E0,4.260073866E0
1.385534363E1,2.468424892E0,-9.879625136E-1,2.920625162E0,3.949587663E0
1.386535262E1,1.318188111E0,-1.170992643E0,2.744956092E0,3.262457297E0
1.387536063E1,3.806280112E-1,-1.411678072E0,2.396369069E0,2.807186737E0
1.388536963E1,-3.087803489E-1,-1.440006663E0,1.911019764E0,2.412666788E0
1.389537863E1,-6.138886464E-1,-1.328279820E0,1.399969608E0,2.025117639E0
1.390538762E1,-5.634815544E-1,-1.285653033E0,9.072042062E-1,1.671357130E0
1.391539563E1,-5.709601432E-1,-1.247225132E0,4.342592579E-1,1.438800583E0
1.392540462E1,-5.570478630E-1,-1.258244795E0,-7.508175731E-2,1.378085467E0
1.393541363E1,-4.141734874E-1,-1.416335964E0,-4.437889769E-1,1.540939940E0
1.394542163E1,-2.751781547E-1,-1.597194437E0,-5.458815084E-1,1.710187039E0
1.395543063E1,-7.130679488E-3,-1.704435881E0,-3.980357569E-1,1.750309967E0
1.396543962E1,4.383622491E-1,-1.810181022E0,1.045189798E-5,1.862502830E0
1.397544863E1,8.711772448E-1,-1.856934773E0,4.868894613E-1,2.108131374E0
1.398545662E1,1.108687052E0,-1.848798957E0,8.464551439E-1,2.315972986E0
1.399546563E1,1.197448955E0,-1.789996433E0,1.131452016E0,2.432725816E0
1.400547463E1,1.274947951E0,-1.671586223E0,1.262075890E0,2.452045744E0
1.401548263E1,1.300440642E0,-1.502996963E0,1.235060000E0,2.339982678E0
1.402549162E1,1.198942918E0,-1.273655716E0,9.727135599E-1,2.001458137E0
1.403550063E1,1.146132036E0,-1.102444564E0,5.974568009E-1,1.698810551E0
1.404550963E1,1.268511921E0,-1.037480829E0,2.506589522E-1,1.657805439E0
1.405551763E1,1.389753352E0,-9.706471539E-1,7.089686852E-2,1.696642757E0
1.406552663E1,1.412672684E0,-8.399238771E-1,4.233618021E-2,1.644052488E0
1.407553563E1,1.339035189E0,-8.300584549E-1,-1.406372309E-2,1.575503114E0
1.408554362E1,1.192013968E0,-9.545041609E-1,2.462317329E-2,1.527279212E0
1.409555263E1,1.010929792E0,-1.072662356E0,1.072010976E-1,1.477861851E0
1.410556163E1,9.202856702E-1,-1.115945785E0,2.683030351E-1,1.471138073E0
1.411557062E1,8.884820795E-1,-1.128848836E0,4.848265636E-1,1.516165194E0
1.412557862E1,8.380188543E-1,-1.100854706E0,6.484217173E-1,1.527942213E0
1.413558763E1,7.560976088E-1,-1.022748769E0,7.002853507E-1,1.451929134E0
1.414559663E1,7.723926294E-1,-9.173117763E-1,5.505779189E-1,1.319540569E0
1.415560679E1,8.228049839E-1,-7.541346985E-1,3.020484495E-1,1.156270060E0
1.416561579E1,8.110187513E-1,-6.232681650E-1,3.666671991E-2,1.023503331E0
1.417562479E1,7.293325639E-1,-5.312750906E-1,-1.207379866E-1,9.103608471E-1
1.418563279E1,5.582213992E-1,-4.106329983E-1,-8.775383393E-2,6.985208123E-1
1.419564179E1,3.017116499E-1,-2.573523331E-1,2.947582324E-2,3.976543313E-1
1.420565079E1,-6.390421987E-2,-9.787478864E-2,1.370762765E-1,1.801475205E-1
1.421565979E1,-5.092293334E-1,6.601155639E-2,7.116296251E-2,5.183977303E-1
1.422566779E1,-8.399928743E-1,1.617871946E-1,-1.725782128E-1,8.726662390E-1
1.423567679E1,-1.223916376E0,3.846239984E-1,-3.706935553E-1,1.335410285E0
1.424568579E1,-1.576129258E0,6.745260268E-1,-5.186456895E-1,1.791134320E0
1.425569479E1,-1.929276525E0,9.036099958E-1,-6.492572844E-1,2.227140309E0
1.426570279E1,-2.160954319E0,1.266725596E0,-7.392237139E-1,2.611660201E0
1.427571179E1,-2.134106829E0,1.804623828E0,-7.203828156E-1,2.886179225E0
1.428572079E1,-2.143641883E0,2.508083047E0,-4.963058174E-1,3.336465279E0
1.429572879E1,-2.345999399E0,3.194044474E0,-2.281337965E-1,3.969594225E0
1.430573779E1,-2.582497637E0,3.490923985E0,-5.569824656E-2,4.342688868E0
1.431574679E1,-2.757032931E0,3.561504555E0,1.032688451E-1,4.505131489E0
1.432575479E1,-2.880877544E0,3.502431305E0,3.065566528E-1,4.545377592E0
1.433576379E1,-3.032267804E0,3.362952992E0,3.977217615E-1,4.545578452E0
1.434577279E1,-2.855200666E0,2.947522938E0,2.254253662E-1,4.109851446E0
1.435578179E1,-2.157817288E0,2.293891937E0,-2.841740960E-1,3.162099078E0
1.436578979E1,-1.037245186E0,1.905671316E0,-8.160263067E-1,2.318050835E0
1.437579879E1,2.640970963E-1,1.968587941E0,-1.164857744E0,2.302602728E0
1.438580779E1,1.473242821E0,2.172054673E0,-1.306207166E0,2.931628059E0
1.439581579E1,2.524602601E0,2.118105923E0,-1.247825641E0,3.523784872E0
1.440582479E1,3.229045322E0,1.869708016E0,-1.015266672E0,3.866950759E0
1.441583379E1,3.355282030E0,1.627671295E0,-5.910909373E-1,3.775793935E0
1.442584279E1,2.764123850E0,1.341392201E0,-1.635495089E-1,3.076761631E0
1.443585079E1,1.593790188E0,8.958185810E-1,3.757599849E-2,1.828679865E0
1.444585979E1,3.936924452E-1,4.946112943E-1,7.888540763E-2,6.370690554E-1
1.445586879E1,-3.372978044E-1,2.695449471E-1,5.944922626E-2,4.358422855E-1
1.446587679E1,-5.547054684E-1,6.333528578E-2,-2.148120850E-1,5.982087821E-1
1.447588579E1,-4.211462921E-1,-6.216467321E-2,-6.269139040E-1,7.577926424E-1
1.448589479E1,6.144663513E-2,-1.797089106E-1,-9.386014885E-1,9.576240054E-1
1.449590379E1,7.257891512E-1,-3.892813057E-1,-1.066842037E0,1.347761759E0
1.450591179E1,1.282097341E0,-4.886453801E-1,-9.439628005E-1,1.665416966E0
1.451592079E1,1.640791862E0,-6.513926876E-1,-6.541297692E-1,1.882656666E0
1.452592979E1,1.753119214E0,-8.764175195E-1,-1.301046413E-1,1.964296786E0
1.453593779E1,1.615719586E0,-1.154815736E0,5.316259235E-1,2.055912276E0
1.454594679E1,1.400518661E0,-1.528753948E0,1.066188319E0,2.331372704E0
1.455595579E1,1.263065239E0,-1.797603661E0,1.484088821E0,2.651269950E0
1.456596479E1,1.159192377E0,-1.902124979E0,1.742945643E0,2.828368066E0
1.457597279E1,1.085660132E0,-1.944321996E0,1.681579700E0,2.790475986E0
1.458598179E1,1.158498312E0,-2.007573667E0,1.242314056E0,2.629793638E0
1.459599079E1,1.277379223E0,-2.093333024E0,5.264979154E-1,2.508174812E0
1.460599879E1,1.296578556E0,-2.077871817E0,-2.143033773E-1,2.458575436E0
1.461600779E1,1.188672869E0,-1.914347999E0,-7.259920496E-1,2.367432345E0
1.462601679E1,9.898394698E-1,-1.720509292E0,-9.826596737E-1,2.214848625E0
1.463602579E1,7.804465842E-1,-1.684682232E0,-1.087318987E0,2.151630468E0
1.464603379E1,5.960680872E-1,-1.768514348E0,-1.020385909E0,2.126999663E0
1.465604279E1,3.869114292E-1,-1.829213709E0,-8.026027807E-1,2.034673062E0
1.466605179E1,2.837109965E-1,-1.831261988E0,-6.168882680E-1,1.953090765E0
1.467605979E1,3.869915360E-1,-1.821544501E0,-4.406415303E-1,1.913622684E0
1.468606879E1,5.272247243E-1,-1.765948005E0,-2.622131600E-1,1.861530018E0
1.469607779E1,6.730741632E-1,-1.711402254E0,-1.920412000E-1,1.849001440E0
1.470608679E1,9.003162593E-1,-1.654239873E0,-2.357679212E-1,1.898068871E0
1.471609479E1,1.032063383E0,-1.513782737E0,-2.654917303E-1,1.851264125E0
1.472610379E1,1.085385897E0,-1.282309011E0,-2.874589887E-1,1.704409462E0
1.473611279E1,1.009725850E0,-1.010711106E0,-2.993312484E-1,1.459685729E0
1.474612079E1,7.278619891E-1,-7.208143401E-1,-3.685786539E-1,1.088671949E0
1.475612979E1,4.574925846E-1,-5.732417268E-1,-5.612153198E-1,9.235086234E-1
1.476613879E1,9.783385813E-2,-4.547250974E-1,-7.646364440E-1,8.949945640E-1
1.477614679E1,-3.202695429E-1,-3.055474234E-1,-8.873085433E-1,9.915887550E-1
1.478615579E1,-6.878798980E-1,-6.756808519E-2,-9.011266103E-1,1.135681896E0
1.479616479E1,-9.082743198E-1,2.134099227E-1,-9.137975997E-1,1.305960217E0
1.480617379E1,-1.236941634E0,5.289204168E-1,-8.576174786E-1,1.595396237E0
1.481618179E1,-1.580268502E0,8.067923838E-1,-7.026703569E-1,1.908378401E0
1.482619079E1,-1.920110430E0,1.159348497E0,-4.645145059E-1,2.290564718E0
1.483619979E1,-2.252977799E0,1.581729137E0,-1.913507169E-1,2.759418620E0
1.484620779E1,-2.502995970E0,1.976998576E0,9.631241262E-2,3.191048147E0
1.485621679E1,-2.592874106E0,2.282257732E0,3.377135414E-1,3.470698333E0
1.486622579E1,-2.426919016E0,2.421464149E0,4.520400560E-1,3.458000108E0
1.487623479E1,-1.918298378E0,2.481230294E0,4.851925993E-1,3.173607458E0
1.488624279E1,-1.349466621E0,2.573936729E0,4.757892533E-1,2.944925442E0
1.489625179E1,-7.635966629E-1,2.706598942E0,2.655828007E-1,2.824764047E0
1.490626079E1,-4.444661576E-1,3.076903694E0,-1.005960828E-1,3.110467180E0
1.491626879E1,-9.211709386E-1,3.571702684E0,-3.294752531E-1,3.703264763E0
1.492627779E1,-1.841282946E0,3.692699702E0,-1.912197393E-1,4.130728625E0
1.493628679E1,-2.381415984E0,3.301680604E0,2.799430507E-1,4.080515288E0
1.494629579E1,-2.539887807E0,2.741913786E0,1.253185930E0,3.942029459E0
1.495630379E1,-2.210052804E0,2.087279987E0,2.360666701E0,3.848872356E0
1.496631279E1,-1.351840006E0,1.602478566E0,3.051015147E0,3.701905237E0
1.497632179E1,-1.352706563E-1,1.394896563E0,3.349880372E0,3.631216474E0
1.498632979E1,1.226936463E0,1.148251067E0,3.350282076E0,3.748098663E0
1.499633879E1,2.339830002E0,9.279396755E-1,3.185473040E0,4.059940267E0
1.500634779E1,2.882655682E0,8.153059298E-1,2.904387444E0,4.172516502E0
1.501635679E1,2.677011446E0,7.850196916E-1,2.454150669E0,3.715575555E0
1.502636479E1,1.721771706E0,7.768131244E-1,1.794289459E0,2.605266032E0
1.503637379E1,8.204701906E-1,6.820092934E-1,1.081738916E0,1.519364042E0
1.504638279E1,1.907548857E-1,5.738837510E-1,3.627162355E-1,7.051900833E-1
1.505639079E1,-1.244942379E-1,4.731023115E-1,-3.540758780E-1,6.038992795E-1
1.506639979E1,-4.097436368E-2,3.115460819E-1,-1.025999821E0,1.073040303E0
1.507640879E1,1.525012314E-1,1.388257635E-1,-1.443648893E0,1.458304270E0
1.508641779E1,2.938605934E-1,-7.468180776E-2,-1.573517892E0,1.602463721E0
1.509642579E1,4.706961823E-1,-3.598908609E-1,-1.382309262E0,1.503946550E0
1.510643479E1,5.466468358E-1,-6.379318124E-1,-8.700727788E-1,1.209465337E0
1.511644379E1,4.606120741E-1,-8.850825083E-1,-2.154419032E-1,1.020759395E0
1.512645179E1,3.790638810E-1,-1.229182963E0,2.968912053E-1,1.320122938E0
1.513646079E1,3.274838376E-1,-1.581478291E0,6.556746036E-1,1.743051472E0
1.514646979E1,2.630194545E-1,-1.794104687E0,9.444621527E-1,2.044504737E0
1.515647675E1,2.855078459E-1,-1.941061004E0,1.117056756E0,2.257664357E0
1.516648475E1,3.391747606E-1,-2.102061748E0,1.097276795E0,2.395353726E0
1.517649375E1,3.994121915E-1,-2.227790918E0,8.796755880E-1,2.428252790E0
1.518650275E1,3.942321432E-1,-2.271673687E0,5.171289217E-1,2.362909783E0
1.519651075E1,3.755573058E-1,-2.238411216E0,1.539934409E-1,2.274915831E0
1.520651975E1,5.604252148E-1,-2.220455001E0,-3.449440621E-2,2.290346414E0
1.521652875E1,9.647397119E-1,-2.176234263E0,1.278517091E-1,2.383917855E0
1.522653775E1,1.337655246E0,-1.983493078E0,5.570460723E-1,2.456393021E0
1.523654575E1,1.607207794E0,-1.808763072E0,9.213042551E-1,2.589119981E0
1.524655475E1,1.879866384E0,-1.666429564E0,9.600654477E-1,2.689351367E0
1.525656375E1,2.091799884E0,-1.485870468E0,7.686194211E-1,2.678472255E0
1.526657175E1,2.188346770E0,-1.283519384E0,4.880588679E-1,2.583502478E0
1.527658075E1,2.142716269E0,-1.109785743E0,1.578397393E-1,2.418216448E0
1.528658975E1,2.006058068E0,-9.870883548E-1,-6.309613466E-2,2.236647830E0
1.529659775E1,1.691308882E0,-9.059406960E-1,-1.976978695E-1,1.928817961E0
1.530660675E1,1.454474428E0,-8.303379518E-1,-1.964758015E-1,1.686285776E0
1.531661575E1,1.209919311E0,-7.731048203E-1,-1.172659099E-1,1.440606503E0
1.532662475E1,9.253715783E-1,-7.555701900E-1,-8.059392750E-2,1.197369722E0
1.533663275E1,6.011744606E-1,-7.268410653E-1,-9.816247165E-2,9.483377759E-1
1.534664175E1,1.964874959E-1,-6.698353904E-1,-6.790953975E-3,6.980923316E-1
1.535665075E1,-2.891161627E-1,-5.186591381E-1,1.553628588E-1,6.137858543E-1
1.536665875E1,-8.086231470E-1,-2.797325510E-1,2.539878452E-1,8.925421668E-1
1.537666775E1,-1.217238271E0,-1.047633934E-1,2.836180258E-1,1.254226280E0
1.538667675E1,-1.572267757E0,2.482084572E-2,2.201324666E-1,1.587797304E0
1.539668575E1,-1.793773150E0,1.153363287E-1,1.268623602E-1,1.801948568E0
1.540669375E1,-1.917326571E0,1.610282260E-1,1.487180829E-2,1.924134205E0
1.541670275E1,-1.926197966E0,2.901873726E-1,-1.237422860E-1,1.951860515E0
1.542671175E1,-1.870483941E0,5.087352437E-1,-3.116133249E-1,1.963319787E0
1.543671975E1,-1.589617031E0,7.289647740E-1,-4.363426208E-1,1.802405845E0
1.544672875E1,-1.293494734E0,1.049686891E0,-4.551028275E-1,1.726872833E0
1.545673775E1,-1.085416887E0,1.441808774E0,-3.760320997E-1,1.843459384E0
1.546674675E1,-9.331787807E-1,1.878564209E0,-2.088309681E-1,2.107946037E0
1.547675475E1,-9.864825833E-1,2.490366569E0,2.640721360E-2,2.678762937E0
1.548676375E1,-1.260818154E0,3.145914872E0,2.332559574E-1,3.397182825E0
1.549677275E1,-1.591110994E0,3.491777093E0,4.061873603E-1,3.858643497E0
1.550678075E1,-2.057734591E0,3.563254042E0,7.308072317E-1,4.179130319E0
1.551678975E1,-2.589934126E0,3.504335743E0,1.191240381E0,4.517430843E0
1.552679875E1,-3.073706437E0,3.331482108E0,1.538533416E0,4.786807847E0
1.553680775E1,-3.160674414E0,3.142831051E0,1.394001939E0,4.670170358E0
1.554681575E1,-2.633769532E0,2.778387548E0,7.275281131E-1,3.896854689E0
1.555682475E1,-1.529789490E0,2.333831343E0,-1.423188901E-1,2.794150906E0
1.556683375E1,1.587402105E-2,2.024828800E0,-8.505909526E-1,2.196289740E0
1.557684175E1,1.509341776E0,1.885070990E0,-1.201350217E0,2.697192537E0
1.558685075E1,3.051042629E0,1.634025464E0,-1.496220624E0,3.770620174E0
1.559685975E1,4.164812080E0,1.259530597E0,-1.735026759E0,4.684271005E0
1.560686875E1,4.545594458E0,8.474644464E-1,-1.713746402E0,4.931282966E0
1.561687675E1,4.017920668E0,5.390974957E-1,-1.281952915E0,4.251789726E0
1.562688575E1,2.598796166E0,3.320698088E-1,-5.621630073E-1,2.679559501E0
1.563689475E1,1.123937759E0,6.068006516E-2,1.426720619E-2,1.125665008E0
1.564690275E1,3.090838194E-2,-1.633191651E-1,3.178125429E-1,3.586548343E-1
1.565691175E1,-7.792993605E-1,-2.383863044E-1,2.133052576E-1,8.423981578E-1
1.566692075E1,-1.120041175E0,-2.091636747E-1,-3.003399296E-1,1.178323279E0
1.567692975E1,-9.191460478E-1,-1.602797824E-1,-8.564311516E-1,1.266488604E0
1.568693775E1,-1.610802662E-1,-2.191893107E-1,-1.282742289E0,1.311266024E0
1.569694675E1,6.430264914E-1,-3.181896883E-1,-1.412812432E0,1.584539906E0
1.570695575E1,1.181726961E0,-3.695563084E-1,-1.379620128E0,1.853753536E0
1.571696375E1,1.554530228E0,-5.291630763E-1,-1.335929732E0,2.116904826E0
1.572697275E1,1.809758853E0,-7.627230889E-1,-1.080474236E0,2.241516939E0
1.573698175E1,1.866638228E0,-8.599698865E-1,-5.630377507E-1,2.130938288E0
1.574699075E1,1.808302311E0,-9.545328122E-1,1.132453644E-1,2.047904942E0
1.575699875E1,1.670878125E0,-1.027551672E0,7.855757618E-1,2.113013352E0
1.576700775E1,1.548811651E0,-1.117720415E0,1.200096574E0,2.255736741E0
1.577701675E1,1.525798180E0,-1.173836728E0,1.291057030E0,2.317926014E0
1.578702475E1,1.551132411E0,-1.214618134E0,1.031462874E0,2.223786103E0
1.579703375E1,1.544183580E0,-1.261664246E0,5.307517282E-1,2.063491458E0
1.580704275E1,1.531438404E0,-1.351610211E0,-5.304948527E-2,2.043273842E0
1.581705175E1,1.383800302E0,-1.384223641E0,-5.774850512E-1,2.040702660E0
1.582705975E1,1.107414113E0,-1.328738827E0,-1.001062031E0,1.998508963E0
1.583706875E1,8.671987993E-1,-1.412900140E0,-1.456958910E0,2.207045498E0
1.584707775E1,6.557091022E-1,-1.569602596E0,-1.709244046E0,2.411456395E0
1.585708575E1,3.303425413E-1,-1.677346900E0,-1.688854805E0,2.403091628E0
1.586709475E1,1.831973594E-1,-1.800303320E0,-1.503630216E0,2.352776476E0
1.587710375E1,1.266846049E-1,-1.893023788E0,-1.181849753E0,2.235253205E0
1.588711175E1,2.381360435E-1,-1.975273647E0,-8.529391944E-1,2.164698599E0
1.589712075E1,4.065785390E-1,-1.977621889E0,-4.679398048E-1,2.072501413E0
1.590712975E1,4.142629498E-1,-1.883367112E0,-1.080600536E-1,1.931414623E0
1.591713875E1,4.786945885E-1,-1.804916189E0,7.691602886E-2,1.868899953E0
1.592714675E1,5.533793199E-1,-1.718887859E0,1.755807763E-1,1.814285742E0
1.593715575E1,6.193218791E-1,-1.506451498E0,3.232703340E-1,1.660559970E0
1.594716475E1,5.891473228E-1,-1.203099119E0,4.327641249E-1,1.407773720E0
1.595717375E1,4.422997642E-1,-8.938153249E-1,2.981904566E-1,1.040890227E0
1.596718175E1,1.067303967E-1,-5.830042380E-1,-6.210386217E-2,5.959380914E-1
1.597719075E1,-3.126360029E-1,-2.290447927E-1,-5.862476885E-1,7.027724665E-1
1.598719975E1,-5.225159615E-1,1.042593634E-1,-1.195525221E0,1.308882538E0
1.599720775E1,-6.008247972E-1,5.316545749E-1,-1.730899209E0,1.907789060E0
1.600721675E1,-6.262391353E-1,1.015287137E0,-1.986869845E0,2.317463097E0
1.601722575E1,-7.423280007E-1,1.406595672E0,-2.113786000E0,2.645307827E0
1.602723375E1,-1.007263588E0,1.622547380E0,-1.998965396E0,2.764616174E0
1.603724275E1,-1.450891255E0,1.657206166E0,-1.740878068E0,2.807503189E0
1.604725175E1,-1.974535144E0,1.644088522E0,-1.260119997E0,2.861768423E0
1.605726075E1,-2.373490668E0,1.640024123E0,-6.003149565E-1,2.946780467E0
1.606726875E1,-2.591344475E0,1.723271517E0,1.406214434E-1,3.115205498E0
1.607727775E1,-2.482430143E0,1.861364624E0,7.656987369E-1,3.195846090E0
1.608728675E1,-2.111102713E0,1.900186628E0,1.292886624E0,3.120740250E0
1.609729475E1,-1.580571388E0,1.757375402E0,1.706391190E0,2.915192122E0
1.610730375E1,-1.051253945E0,1.757494685E0,1.982920636E0,2.850595845E0
1.611731275E1,-8.077899188E-1,2.102309670E0,2.028870395E0,3.031261385E0
1.612732175E1,-8.768882203E-1,2.614065585E0,1.651859472E0,3.214173541E0
1.613732975E1,-1.392681053E0,3.042608020E0,1.016685718E0,3.497238043E0
1.614733875E1,-2.113493055E0,3.000201674E0,6.966237511E-1,3.735417999E0
1.615734738E1,-2.759551327E0,2.591838564E0,7.778912779E-1,3.864953494E0
1.616735538E1,-3.152811078E0,2.136708840E0,1.084505891E0,3.960037296E0
1.617736438E1,-3.033327320E0,1.568386960E0,1.391084763E0,3.687279363E0
1.618737337E1,-1.970353800E0,8.859262615E-1,1.577951835E0,2.675274086E0
1.619738238E1,-4.232045120E-1,2.761312509E-1,1.616484402E0,1.693626980E0
1.620739037E1,1.475394012E0,-1.566539240E-1,1.513141882E0,2.119180572E0
1.621739938E1,3.323191341E0,-4.096559286E-1,1.594954954E0,3.708813823E0
1.622740838E1,4.758989763E0,-5.126037616E-1,1.819642986E0,5.120727172E0
1.623741638E1,5.269296153E0,-4.798184234E-1,2.140931114E0,5.707827407E0
1.624742537E1,4.446604021E0,-4.517266452E-1,2.470863181E0,5.107005888E0
1.625743438E1,2.786020503E0,-5.950214356E-1,2.587152606E0,3.848287847E0
1.626744338E1,1.234755360E0,-7.693836522E-1,2.668373939E0,3.039209023E0
1.627745138E1,6.527480721E-2,-7.684498519E-1,2.670811059E0,2.779929439E0
1.628746038E1,-6.419225371E-1,-5.605392355E-1,2.461236910E0,2.604602830E0
1.629746938E1,-8.625186878E-1,-3.012450421E-1,1.927873778E0,2.133397377E0
1.630747737E1,-7.549246573E-1,-6.019883931E-2,1.224950164E0,1.440152090E0
1.631748638E1,-5.669021755E-1,4.272911310E-2,4.399047081E-1,7.188323907E-1
1.632749538E1,-4.286371601E-1,2.771463275E-2,-2.667576160E-1,5.056258909E-1
1.633750437E1,-3.164021945E-1,-2.646449804E-3,-8.329230058E-1,8.909983648E-1
