"Time (s)","Linear Acceleration x (m/s^2)","Linear Acceleration y (m/s^2)","Linear Acceleration z (m/s^2)","Absolute acceleration (m/s^2)"
3.428791664E-3,-3.964251414E-2,1.938819766E-1,-6.901053482E-1,7.179186176E-1
1.343779167E-2,-8.873898196E-1,2.084298491E-1,-7.803384107E-1,1.199929885E0
2.344679167E-2,-9.166371538E-1,-2.885016203E-2,-6.849726623E-1,1.144658705E0
3.345479167E-2,-4.718165088E-1,-3.081272149E-1,-3.191550636E-1,6.476211494E-1
4.346379168E-2,-4.257705626E-1,-2.406304657E-1,9.128094202E-1,1.035569713E0
5.347279167E-2,-4.583177729E-1,1.001043320E-3,1.992660343E0,2.044688589E0
6.348179167E-2,1.359438170E-1,1.537876189E-1,1.449083880E0,1.463548921E0
7.349079168E-2,5.891822599E-1,1.098200655E-1,2.037713724E-1,6.330236602E-1
8.349979167E-2,3.040954135E-1,2.979238236E-1,-5.630471063E-1,7.058715670E-1
9.350779167E-2,-2.616389269E-1,5.974164551E-1,-3.455710298E-1,7.380925996E-1
1.035167917E-1,-3.801311441E-1,5.692588958E-1,1.990871680E-1,7.128752188E-1
1.135257917E-1,-2.796094671E-2,2.780149314E-1,3.822722483E-1,4.735041588E-1
1.235347917E-1,1.558250812E-1,7.573226005E-2,-4.015867710E-3,1.733001971E-1
1.335437917E-1,-3.354299113E-2,1.362313539E-1,-4.020469469E-1,4.258237447E-1
1.435527917E-1,-1.069460128E-1,2.695981568E-1,-4.109218508E-1,5.029685709E-1
1.535617917E-1,-6.063869610E-2,4.115159279E-1,-3.000001699E-1,5.128572046E-1
1.635697917E-1,-1.843203172E-2,4.725857100E-1,-1.618287098E-1,4.998655063E-1
1.735787917E-1,-3.552958265E-2,4.359871101E-1,1.152544677E-2,4.375842175E-1
1.835877917E-1,-8.101046853E-2,3.591617131E-1,1.744920248E-1,4.074399329E-1
1.935967917E-1,-1.243688151E-2,3.032754877E-1,1.536244816E-1,3.401928553E-1
2.036057917E-1,2.796920590E-2,2.681427848E-1,9.227491021E-2,2.849517303E-1
2.136147917E-1,1.064305808E-1,2.065604943E-1,2.090619332E-1,3.125725487E-1
2.236227917E-1,7.196372956E-2,9.658518523E-2,3.840690976E-1,4.025127925E-1
2.336317917E-1,8.123500161E-2,7.896080017E-3,4.560103154E-1,4.632568201E-1
2.436407917E-1,5.041001558E-2,-5.636832833E-2,2.033550507E-1,2.169604451E-1
2.536497917E-1,4.140419251E-1,4.823602080E-2,-3.639342105E-1,5.533584182E-1
2.636587917E-1,1.111657218E0,-2.158587366E-2,-9.405983126E-1,1.456356037E0
2.736677917E-1,1.290557385E0,-1.683126873E-1,-1.209422883E0,1.776674206E0
2.836757917E-1,8.579719660E-1,-1.229488188E-1,-1.749402723E0,1.952342745E0
2.936847917E-1,-1.177169495E-1,-2.428380820E-1,-2.200782629E0,2.217266739E0
3.036937917E-1,-2.789142331E-1,1.196656072E-1,-2.486545998E0,2.504999802E0
3.137027917E-1,1.133869840E0,9.657933801E-1,-2.446014853E0,2.863809758E0
3.237117917E-1,2.357887373E0,9.236969358E-1,-2.554190682E0,3.596767845E0
3.337207917E-1,2.255381590E0,9.531581318E-1,-2.990112303E0,3.864715788E0
3.437297917E-1,1.192739315E0,1.762412193E-1,-3.218665929E0,3.437077015E0
3.537377917E-1,1.233784576E0,5.773882797E-1,-1.796892055E0,2.254866440E0
3.637467917E-1,-6.366353385E-2,-9.638909885E-1,3.669537127E-2,9.666878677E-1
3.737557917E-1,-3.497938158E-1,-2.938234051E0,-6.352473557E-1,3.026402858E0
3.837647917E-1,-1.267122184E0,-3.191366157E0,-9.636544687E-1,3.566377225E0
3.937737917E-1,-2.368685865E0,-1.810597343E0,-7.438856989E-1,3.072832797E0
4.037827917E-1,-1.861900521E0,-1.587361175E-1,3.909746593E-1,1.909118092E0
4.137907917E-1,-8.145446223E-1,3.130707434E-1,-2.275783110E-1,9.018248831E-1
4.237997917E-1,2.241679224E-1,-5.374377635E-1,-2.661944926E0,2.724892914E0
4.338087917E-1,9.073468052E-1,-3.648911074E-1,-3.369406564E0,3.508464670E0
4.438177917E-1,4.132298930E-1,3.286076725E-1,-3.763836343E0,3.800684934E0
4.538267917E-1,-5.531873851E-1,-3.832671520E-1,-4.615696726E0,4.664500645E0
4.638357917E-1,-1.110161866E0,-1.049674905E0,-4.149799939E0,4.422116722E0
4.738447917E-1,-1.978225906E0,-1.422044308E0,-2.651821057E0,3.601075210E0
4.838527917E-1,-3.408467719E0,-1.504872019E0,1.222910070E-1,3.727901162E0
4.938617917E-1,-2.473263463E0,4.702080859E-1,6.977239779E0,7.417546948E0
5.038707917E-1,4.908452488E-1,1.016050783E0,1.220464765E1,1.225670072E1
5.138797917E-1,5.417174576E0,-1.935266852E0,1.294387604E1,1.416456724E1
5.238887917E-1,5.992820678E0,1.489497496E0,1.171058716E1,1.323897104E1
5.338977917E-1,2.301370233E0,2.575663996E0,8.249391591E0,8.943310997E0
5.439057917E-1,-1.688471228E-2,8.693046740E-1,7.109575717E0,7.162544422E0
5.539147917E-1,-8.266802260E-1,-5.328596860E-2,9.048130605E0,9.085973092E0
5.639237917E-1,8.050294483E-1,-2.835698740E0,1.203469482E1,1.239044548E1
5.739327917E-1,7.529475676E-1,-3.345690550E0,9.953685969E0,1.052788866E1
5.839417917E-1,2.939619842E0,-6.326073378E-2,8.540846055E0,9.032796802E0
5.939507917E-1,5.522593442E0,7.670525135E-1,7.456780459E0,9.310799252E0
6.039587917E-1,6.830747731E0,7.460576472E-1,6.341676673E0,9.350539001E0
6.139677917E-1,6.788420321E0,1.163261454E0,5.448371810E0,8.781832557E0
6.239767917E-1,4.683549279E0,9.070870426E-1,3.196530125E0,5.742494718E0
6.339857917E-1,1.845578311E0,4.742150366E-2,-3.565749049E-2,1.846531765E0
6.439956667E-1,-3.230741599E-1,-5.916612601E-1,-2.240239640E0,2.339468658E0
6.540046667E-1,-1.704913306E0,-9.180630704E-1,-2.923861595E0,3.506926833E0
6.640136667E-1,-2.799052777E0,-1.006888196E0,-2.673783783E0,3.999704990E0
6.740216667E-1,-3.719839846E0,-7.226894691E-1,-1.331291136E0,4.016444278E0
6.840306667E-1,-3.181343444E0,6.961313425E-1,-5.726862413E-1,3.306586531E0
6.940396667E-1,-3.226848231E0,5.994731036E-1,2.606279433E-2,3.282163429E0
7.040486667E-1,-3.242910532E0,4.641225962E-1,3.791352171E-1,3.297820798E0
7.140576667E-1,-2.954943055E0,1.828945906E0,-1.069194957E0,3.635919339E0
7.240666667E-1,-2.619957532E0,3.322488213E0,-3.852771909E0,5.722495677E0
7.340746667E-1,-2.111984181E0,3.889321977E0,-5.750975745E0,7.256791622E0
7.440836667E-1,-1.855065711E0,4.088150698E0,-6.710320231E0,8.073576811E0
7.540926667E-1,-1.664189203E0,4.563591603E0,-7.328472083E0,8.792178177E0
7.641016667E-1,-1.569988951E0,4.700160049E0,-7.875553367E0,9.304875637E0
7.741106667E-1,-1.452154545E0,4.745787042E0,-8.058848374E0,9.464474872E0
7.841196667E-1,-1.460509632E0,4.367564868E0,-8.227784375E0,9.428952592E0
7.941276667E-1,-1.531279799E0,3.994679739E0,-8.146015742E0,9.201079095E0
8.041366667E-1,-1.940497478E0,3.591916801E0,-8.005377342E0,8.986293071E0
8.141456667E-1,-2.144030138E0,3.192449061E0,-7.549667573E0,8.472666446E0
8.241546667E-1,-2.054401970E0,2.919685514E0,-6.616546095E0,7.518232052E0
8.341636667E-1,-2.142073368E0,2.712229226E0,-5.643477609E0,6.617666145E0
8.441726667E-1,-2.061809515E0,2.549733057E0,-4.894642242E0,5.891495550E0
8.541816667E-1,-1.970238318E0,2.322704092E0,-4.322270581E0,5.287609696E0
8.641896667E-1,-1.970196218E0,2.016004328E0,-4.100503818E0,4.975949974E0
8.741986667E-1,-2.076838468E0,1.750538253E0,-3.970352983E0,4.810545188E0
8.842076667E-1,-2.119895171E0,1.323664467E0,-3.731090181E0,4.490776892E0
8.942166667E-1,-2.189212158E0,8.424048507E-1,-3.143574232E0,3.922289479E0
9.042256667E-1,-2.265613632E0,3.219861027E-1,-2.303530487E0,3.246988279E0
9.142346667E-1,-2.092330519E0,-1.383600693E-1,-1.217675643E0,2.424814319E0
9.242426667E-1,-1.704447721E0,-4.226743888E-1,4.307924438E-1,1.808142086E0
9.342516667E-1,-6.980267175E-1,-4.152257670E-1,2.444398098E0,2.575798089E0
9.442606667E-1,4.909345651E-1,-3.193179817E-1,4.486918818E0,4.524977481E0
9.542696667E-1,1.540220776E0,-2.397671974E-1,6.282929698E0,6.473405127E0
9.642786667E-1,2.170677508E0,-4.503097187E-1,8.086004598E0,8.384395628E0
9.742876667E-1,1.553693930E0,-1.231879992E0,1.038632496E1,1.057389424E1
9.842956667E-1,-5.586106776E-1,-2.386256309E0,1.215137951E1,1.239605942E1
9.943046667E-1,-3.268983559E0,-3.810609391E0,1.315488568E1,1.408041245E1
1.004313667E0,-5.038096662E0,-4.316177198E0,1.334260469E1,1.490090278E1
1.014322667E0,-5.009956936E0,-3.557923720E0,1.234184672E1,1.378693839E1
1.024331667E0,-2.941363481E0,-2.381791521E0,1.155893728E1,1.216279496E1
1.034340667E0,2.481871880E-1,-8.502946450E-1,1.232638434E1,1.235816931E1
1.044349667E0,3.145699110E0,9.526896237E-1,1.277412435E1,1.319019687E1
1.054357667E0,5.191499534E0,2.101566050E0,1.282097809E1,1.399091586E1
1.064366667E0,5.639503257E0,1.941755799E0,1.339565648E1,1.466349294E1
1.074375667E0,4.194351044E0,7.607787435E-1,1.306570161E1,1.374350478E1
1.084384667E0,2.381560556E0,-4.837109149E-2,1.147897076E1,1.172352081E1
1.094393667E0,1.396884617E0,-4.060177910E-1,1.032124779E1,1.042325732E1
1.104402667E0,1.066133136E0,-9.441361704E-1,9.364204186E0,9.471871674E0
1.114411667E0,1.204110395E0,-1.472440583E0,7.799465888E0,8.028052769E0
1.124419667E0,9.631421795E-1,-1.477010767E0,6.306850657E0,6.548707420E0
1.134428667E0,4.904821368E-1,-1.530409733E0,4.501546798E0,4.779816968E0
1.144437667E0,-1.050540000E-1,-1.465021490E0,2.625980456E0,3.008836597E0
1.154446667E0,-5.141702306E-1,-1.162192656E0,3.375135666E-1,1.314906158E0
1.164455667E0,-2.129542784E-1,-6.218653449E-1,-2.421496308E0,2.509125426E0
1.174464667E0,2.808981934E-1,2.776462644E-2,-5.388333185E0,5.395721377E0
1.184472667E0,3.790558777E-1,6.572019694E-1,-8.463009675E0,8.496948307E0
1.194481667E0,7.692174451E-1,1.005659404E0,-1.176943705E1,1.183734323E1
1.204490667E0,8.189255024E-1,1.090510251E0,-1.359178730E1,1.366003417E1
1.214499667E0,6.419367166E-1,1.155692672E0,-1.471262603E1,1.477190147E1
1.224508667E0,4.999564899E-1,9.454332291E-1,-1.503094494E1,1.506894510E1
1.234517667E0,5.100511139E-2,3.318338737E-1,-1.382292539E1,1.382700190E1
1.244525667E0,-4.395539117E-1,-3.431140298E-1,-1.163995631E1,1.165330501E1
1.254534667E0,-7.115845102E-1,-7.336229584E-1,-9.399679828E0,9.455079906E0
1.264543667E0,-6.609607058E-1,-9.287141392E-1,-7.643582627E0,7.728113249E0
1.274552667E0,-6.349185960E-1,-1.128832025E0,-6.804803635E0,6.926957187E0
1.284561667E0,-3.445862125E-1,-1.151795503E0,-6.460159974E0,6.571075971E0
1.294570667E0,5.138041584E-2,-9.859507790E-1,-6.235680687E0,6.313355092E0
1.304579667E0,1.221847522E-1,-1.063332100E0,-6.017921605E0,6.112363268E0
1.314587667E0,-9.389385805E-3,-1.279036470E0,-5.614853150E0,5.758697626E0
1.324596667E0,-2.089491915E-1,-1.432800115E0,-5.383727918E0,5.575042800E0
1.334605667E0,-5.908082609E-1,-1.529062973E0,-5.303590073E0,5.551140031E0
1.344614667E0,-9.592568509E-1,-1.772235808E0,-5.543723525E0,5.898632383E0
1.354623667E0,-1.137388840E0,-1.935493139E0,-5.868693060E0,6.283418282E0
1.364632667E0,-1.057606433E0,-1.864146729E0,-6.108998421E0,6.474058704E0
1.374640667E0,-6.658921013E-1,-1.808478312E0,-6.223856447E0,6.515396778E0
1.384649667E0,-2.826762221E-1,-1.959701489E0,-5.776425167E0,6.106342889E0
1.394658667E0,-2.184963425E-1,-2.060088680E0,-5.175887468E0,5.575080008E0
1.404667667E0,5.886856120E-2,-2.078981618E0,-4.653545169E0,5.097167126E0
1.414676667E0,3.041507428E-1,-1.952625481E0,-3.718633858E0,4.211115258E0
1.424685667E0,8.782528143E-1,-1.704362206E0,-2.014037763E0,2.780742104E0
1.434693667E0,1.898691641E0,-1.210539701E0,4.656284004E-1,2.299401253E0
1.444702667E0,2.111001848E0,-9.326285577E-1,3.338642609E0,4.058652399E0
1.454711667E0,1.525981490E0,-1.427616705E0,5.648959374E0,6.023076537E0
1.464720667E0,-7.808521617E-1,-2.088801432E0,7.305591928E0,7.638356822E0
1.474729667E0,-4.179565775E0,-2.032300080E0,9.184896394E0,1.029375225E1
1.484738667E0,-6.406259170E0,-1.595938163E0,1.121242778E1,1.301175283E1
1.494747667E0,-6.583326309E0,-8.569264108E-1,1.137900209E1,1.317407290E1
1.504755667E0,-4.959380275E0,1.489845113E0,9.820429094E0,1.110206822E1
1.514764667E0,-1.895426409E0,4.305996318E0,8.261423991E0,9.507122169E0
1.524773667E0,8.489157254E-1,7.203898323E0,7.691183056E0,1.057218548E1
1.534782667E0,2.483591400E0,9.772436902E0,6.962932227E0,1.225361883E1
1.544791667E0,3.454953668E0,9.422860529E0,7.901260065E0,1.277328916E1
1.554800667E0,3.225282346E0,7.600642430E0,1.016001667E1,1.309191163E1
1.564808667E0,2.490122155E0,5.588179321E0,1.088562689E1,1.248700642E1
1.574817667E0,1.932248519E0,3.693363946E0,1.132776644E1,1.207032784E1
1.584826667E0,1.365792047E0,1.724444468E0,1.210800955E1,1.230621761E1
1.594835667E0,8.872125759E-1,1.403340527E-1,1.081285011E1,1.085009527E1
1.604844667E0,7.513424338E-1,-7.954569715E-1,7.112549027E0,7.196222683E0
1.614853667E0,1.049535010E0,-1.008609471E0,3.517177398E0,3.806488362E0
1.624862667E0,1.625438682E0,-9.670131093E-1,1.771617465E0,2.591484845E0
1.634870667E0,1.536375208E0,-6.636252089E-1,1.027699606E0,1.963928125E0
1.644879542E0,7.554885482E-1,-5.365200430E-1,1.435082138E-2,9.267268471E-1
1.654888542E0,-5.295381752E-1,-4.779682182E-1,-1.139631101E0,1.344478837E0
1.664897542E0,-1.696523721E0,-2.153383344E-1,-2.638660144E0,3.144374451E0
1.674906542E0,-2.405236956E0,1.659759937E-1,-4.421760955E0,5.036336247E0
1.684915542E0,-2.719367799E0,5.473756912E-1,-6.034480335E0,6.641500906E0
1.694923542E0,-2.699840730E0,8.285523583E-1,-7.714953157E0,8.215603520E0
1.704932542E0,-2.285586844E0,9.830963145E-1,-9.355231048E0,9.680430443E0
1.714941542E0,-1.357352176E0,1.253315299E0,-1.026383983E1,1.042878767E1
1.724950542E0,-2.775948089E-1,1.431301913E0,-1.035592412E1,1.045805185E1
1.734959542E0,6.057018866E-1,1.227575271E0,-9.532920915E0,9.630700753E0
1.744968542E0,1.032219870E0,9.888359414E-1,-7.855002158E0,7.984004839E0
1.754976542E0,1.053611177E0,4.038380952E-1,-5.620716153E0,5.732855466E0
1.764985542E0,8.757208968E-1,-3.053559271E-1,-3.329499317E0,3.456254481E0
1.774994542E0,5.486869293E-1,-9.529707286E-1,-2.012203492E0,2.293070747E0
1.785003542E0,4.832389715E-1,-1.132288460E0,-1.895684856E0,2.260357966E0
1.795012542E0,7.705345304E-1,-1.020188419E0,-2.522704595E0,2.828170141E0
1.805021542E0,9.768726113E-1,-8.776673618E-1,-3.424645795E0,3.667803010E0
1.815030542E0,1.011916217E0,-6.433002873E-1,-4.157152812E0,4.326630236E0
1.825038542E0,7.180350854E-1,-5.840587834E-1,-4.692988731E0,4.783392340E0
1.835047542E0,1.995203736E-1,-9.298726188E-1,-5.327467178E0,5.411689015E0
1.845056542E0,-3.865078982E-1,-1.288888444E0,-6.085394965E0,6.232387477E0
1.855065542E0,-8.074165741E-1,-1.623859203E0,-6.844165921E0,7.080356445E0
1.865074542E0,-8.511109894E-1,-1.694368730E0,-6.860041696E0,7.117264038E0
1.875083542E0,-6.961061264E-1,-1.766244312E0,-6.466496016E0,6.739417886E0
1.885091542E0,-3.723074964E-1,-1.751662818E0,-6.327051618E0,6.575600176E0
1.895100542E0,1.454692968E-1,-1.491361004E0,-6.086357417E0,6.268099039E0
1.905109542E0,5.986445166E-1,-1.297310042E0,-5.531223933E0,5.712777503E0
1.915118542E0,9.954966509E-1,-1.143270116E0,-4.950831646E0,5.177722871E0
1.925127542E0,1.147111152E0,-8.930113328E-1,-3.854021459E0,4.119079344E0
1.935136542E0,1.066404008E0,-6.651760367E-1,-1.756326996E0,2.159713218E0
1.945144542E0,8.248253430E-1,-3.351729262E-1,3.315073067E-1,9.500393841E-1
1.955153542E0,4.959291836E-1,4.365034193E-2,2.188198251E0,2.244117353E0
1.965162542E0,5.913534772E-1,4.781554753E-1,5.230750138E0,5.285742956E0
1.975171542E0,1.873769053E0,1.473900048E0,9.847847857E0,1.013229980E1
1.985180542E0,2.345080070E0,2.572356811E0,1.335389800E1,1.380010913E1
1.995189542E0,1.896740571E0,3.010607671E0,1.404875889E1,1.449237764E1
2.005198542E0,6.039497685E-1,2.869355313E0,1.241345874E1,1.275507401E1
2.015206542E0,-8.097093404E-1,2.700675128E0,1.105995695E1,1.141367264E1
2.025215542E0,-1.614508628E0,3.466994547E0,1.110035653E1,1.174072419E1
2.035224542E0,-9.661299605E-1,5.212569975E0,1.012233487E1,1.142654611E1
2.045233542E0,3.243245870E-1,6.732906856E0,7.883857582E0,1.037267716E1
2.055242542E0,1.166442120E0,7.311609297E0,7.525335554E0,1.055703050E1
2.065251542E0,1.586044820E0,6.508406519E0,8.256676637E0,1.063238462E1
2.075259542E0,1.713579172E0,5.441814158E0,8.541152449E0,1.027136700E1
2.085268542E0,1.371062143E0,4.208490196E0,9.354253979E0,1.034858776E1
2.095277542E0,5.829271279E-1,2.088183674E0,1.046877304E1,1.069090848E1
2.105286542E0,-6.734038000E-1,-1.533552173E-1,1.022281459E1,1.024611774E1
2.115295542E0,-1.624040466E0,-1.744599236E0,8.324107313E0,8.658631328E0
2.125304542E0,-1.555468268E0,-2.455201706E0,5.239755435E0,5.991872326E0
2.135313542E0,-4.557963073E-1,-2.196229694E0,3.135308023E0,3.855039759E0
2.145321542E0,4.904488076E-1,-1.469555275E0,2.247471476E0,2.729699759E0
2.155330542E0,6.731744429E-1,-8.674107608E-1,1.489778162E0,1.850676696E0
2.165339542E0,8.810891524E-2,-5.057519943E-1,5.654403716E-1,7.637218568E-1
2.175348542E0,-9.251727730E-1,-4.074136676E-1,-4.212924725E-1,1.095179393E0
2.185357542E0,-1.818268306E0,-1.310247007E-1,-1.813454878E0,2.571358726E0
2.195366542E0,-2.138366525E0,2.158384176E-1,-3.604534800E0,4.196649705E0
2.205374542E0,-2.169109723E0,5.185075490E-1,-5.554469538E0,5.985484017E0
2.215383542E0,-2.341559023E0,8.133802955E-1,-7.343797050E0,7.750860680E0
2.225392542E0,-2.255446347E0,7.589940271E-1,-8.520402435E0,8.846489011E0
2.235401542E0,-1.806634393E0,7.105638787E-1,-8.918481461E0,9.127329315E0
2.245410542E0,-1.587243646E0,1.340782629E-1,-8.543755630E0,8.690976909E0
2.255419542E0,-1.334869778E0,-2.500028215E-1,-8.029580721E0,8.143619913E0
2.265428542E0,-6.095991290E-1,-4.089380367E-1,-7.896187606E0,7.930234557E0
2.275436542E0,-2.261549525E-1,-4.485416669E-1,-7.211850536E0,7.229323885E0
2.285445542E0,1.286489770E-1,-7.798276564E-1,-6.861360244E0,6.906731942E0
2.295454542E0,3.594228644E-1,-1.239333291E0,-6.836893739E0,6.957603596E0
2.305463542E0,1.165046755E-1,-1.508719048E0,-6.825682873E0,6.991405666E0
2.315472542E0,-1.689498145E-1,-1.590363428E0,-6.611088889E0,6.801786248E0
2.325481542E0,-3.034908845E-1,-1.590111705E0,-6.161476597E0,6.370585201E0
2.335489542E0,-6.111655980E-2,-1.383733644E0,-6.007511807E0,6.165115745E0
2.345498542E0,-1.736672750E-1,-1.242146240E0,-5.692349807E0,5.828887881E0
2.355507542E0,-2.342263393E-1,-1.398357238E0,-5.679826241E0,5.854117445E0
2.365516542E0,-3.309559508E-1,-1.712355934E0,-5.975176705E0,6.224502497E0
2.375525542E0,-6.411439803E-1,-1.895026460E0,-6.205622490E0,6.520118203E0
2.385534542E0,-6.150091191E-1,-1.999617360E0,-6.495821557E0,6.824397666E0
2.395542542E0,-2.851689997E-1,-1.979098603E0,-6.575038465E0,6.872356471E0
2.405551542E0,1.949145218E-1,-1.840958426E0,-6.529281664E0,6.786651505E0
2.415560542E0,5.961551742E-1,-1.937837141E0,-5.961863764E0,6.297176615E0
2.425569542E0,8.100888978E-1,-1.976863213E0,-4.612683071E0,5.083411975E0
2.435578542E0,8.502379270E-1,-1.891228108E0,-3.526672692E0,4.091096255E0
2.445587542E0,9.197326697E-1,-1.638763171E0,-2.241727756E0,2.925200206E0
2.455595542E0,9.105453052E-1,-1.179787732E0,-5.018957555E-1,1.572542907E0
2.465604542E0,1.138329365E0,-8.056398976E-1,1.533155147E0,2.072538080E0
2.475613542E0,1.353196706E0,-6.032204014E-1,3.683517820E0,3.970304737E0
2.485622542E0,8.852628218E-1,-3.676112321E-1,5.399622989E0,5.484045651E0
2.495631542E0,-3.166502626E-1,9.509239107E-2,6.459665884E0,6.468121310E0
2.505640542E0,-2.081953612E0,4.624232492E-1,7.201907930E0,7.511048125E0
2.515649542E0,-3.787225498E0,1.023556854E0,7.467897186E0,8.435652552E0
2.525657542E0,-4.914650245E0,2.251885832E0,8.099249126E0,9.737690344E0
2.535666542E0,-4.877208184E0,3.411537800E0,9.526766721E0,1.123321121E1
2.545675542E0,-3.894143883E0,3.995609447E0,1.158915803E1,1.286226401E1
2.555684542E0,-1.129331012E0,4.931928767E0,1.218426309E1,1.319301242E1
2.565693542E0,2.014684612E0,5.882797129E0,1.275483322E1,1.418985647E1
2.575702542E0,3.246607434E0,5.989181371E0,1.129341522E1,1.318908567E1
2.585710542E0,2.479121496E0,4.426482290E0,8.297138200E0,9.725342727E0
2.595719542E0,1.945745939E0,2.404002316E0,6.342090071E0,7.056008849E0
2.605728542E0,1.519564902E0,1.927096976E0,5.570123119E0,6.086793229E0
2.615737542E0,1.781278089E0,1.092722399E0,3.525568153E0,4.098368537E0
2.625746542E0,2.425743580E0,9.086858176E-1,1.435725331E0,2.961629460E0
2.635755542E0,2.341582704E0,7.436152652E-2,1.026367611E0,2.557727443E0
2.645764542E0,2.513546101E0,-1.928360121E0,1.165513217E0,3.375634431E0
2.655772542E0,1.475065983E0,-9.316374546E-1,3.583773676E0,3.985875282E0
2.665781542E0,3.611947169E-1,-1.194488655E0,5.961098948E0,6.090317351E0
2.675790542E0,-8.327720015E-1,-1.448473577E0,6.820602812E0,7.022265135E0
2.685799542E0,-2.391615575E0,-9.188035472E-1,5.828056666E0,6.366338784E0
2.695808542E0,-2.610967730E0,-3.861944143E-1,3.135809129E0,4.098731207E0
2.705817542E0,-1.859799617E0,7.603217836E-1,3.274733126E-2,2.009481579E0
2.715825542E0,-1.215228656E0,2.195355535E0,-2.720905325E0,3.701309552E0
2.725834542E0,-7.676900062E-1,2.851154977E0,-4.722871512E0,5.569914538E0
2.735843542E0,-7.815010565E-1,2.622413070E0,-5.967731445E0,6.565181857E0
2.745852542E0,-1.052071240E0,1.889712218E0,-6.638847960E0,6.982275302E0
2.755861542E0,-1.141428682E0,8.389195447E-1,-6.784427842E0,6.930736367E0
2.765870542E0,-8.669964125E-1,3.675102215E-1,-6.589992719E0,6.656932521E0
2.775878542E0,-5.033202104E-1,-5.258181766E-3,-6.187252293E0,6.207692793E0
2.785887542E0,4.362607598E-1,-2.030420785E-1,-5.570269884E0,5.591015661E0
2.795896542E0,1.725765646E0,9.912463099E-2,-4.653918806E0,4.964579842E0
2.805905542E0,2.536625646E0,2.994322591E-1,-4.492540916E0,5.167886727E0
2.815914542E0,2.463283435E0,5.624483514E-1,-4.979291798E0,5.583678021E0
2.825923542E0,1.858494372E0,5.340070559E-1,-5.230344926E0,5.576349425E0
2.835932542E0,9.876928838E-1,3.751763597E-2,-5.040466538E0,5.136462569E0
2.845940542E0,-7.276121669E-2,-5.958135872E-1,-4.623502759E0,4.662302628E0
2.855949542E0,-7.645365297E-1,-1.049424205E0,-4.634539964E0,4.812979113E0
2.865958542E0,-1.071945560E0,-1.296355484E0,-4.874068229E0,5.156175514E0
2.875967542E0,-1.119856695E0,-1.362244980E0,-5.084021278E0,5.381176708E0
2.885976542E0,-8.490698726E-1,-1.251945589E0,-5.321278485E0,5.532114616E0
2.895985542E0,-5.120328540E-1,-1.069686708E0,-5.543308958E0,5.668746025E0
2.905993542E0,-2.660852958E-1,-9.601696743E-1,-5.265291980E0,5.358733696E0
2.916002542E0,-1.052892774E-1,-1.143426968E0,-4.257268839E0,4.409404612E0
2.926011542E0,-8.149659142E-2,-1.461757428E0,-3.144901550E0,3.468974233E0
2.936020542E0,-2.524737087E-1,-1.765468533E0,-2.134558234E0,2.781539316E0
2.946029542E0,-1.555399563E-1,-2.056370435E0,-8.416856432E-1,2.227394614E0
2.956038542E0,2.863559845E-1,-2.056198381E0,5.358423507E-1,2.144079886E0
2.966046542E0,1.080356195E0,-1.676122493E0,1.417017165E0,2.446322498E0
2.976055542E0,1.692727416E0,-1.176754343E0,1.858990070E0,2.775954064E0
2.986064542E0,2.012004979E0,-6.655324244E-1,2.395824693E0,3.198604915E0
2.996073542E0,1.568292527E0,-4.903346407E-1,3.340129555E0,3.722423264E0
3.006082542E0,1.441825074E-1,-6.774312159E-1,4.153750318E0,4.211097642E0
3.016091542E0,-1.573254475E0,-1.096220788E0,5.028430629E0,5.381630260E0
3.026100542E0,-2.926939277E0,-1.608603525E0,7.159902118E0,7.900555498E0
3.036108542E0,-3.754751232E0,-1.525137445E0,9.545348003E0,1.037004675E1
3.046117542E0,-3.437509085E0,-8.836990571E-1,1.063785581E1,1.121433765E1
3.056126542E0,-2.282065212E0,-1.008480978E-1,1.022875654E1,1.048071812E1
3.066135542E0,-1.507630589E0,9.211224067E-1,8.698984587E0,8.876584328E0
3.076144542E0,-1.028575666E0,3.175778064E0,5.922709638E0,6.798678083E0
3.086153542E0,5.048076689E-2,4.906257151E0,4.270294096E0,6.504561416E0
3.096161542E0,1.018714775E0,5.149427648E0,5.843233699E0,7.854792483E0
3.106170542E0,1.397890484E0,4.590626497E0,7.662748631E0,9.041330987E0
3.116179542E0,1.261577708E0,3.951649202E0,7.869157097E0,8.895546254E0
3.126188542E0,9.895761989E-1,2.573560168E0,8.145492416E0,8.599506945E0
3.136197542E0,5.832041031E-1,8.873974210E-1,9.236423813E0,9.297264439E0
3.146206542E0,-2.720974761E-1,-7.433066784E-1,9.602990440E0,9.635557443E0
3.156215542E0,-1.224295276E0,-2.245189746E0,8.057032229E0,8.453138131E0
3.166223542E0,-1.718415989E0,-2.634608608E0,5.249447780E0,6.119707347E0
3.176232542E0,-1.586652492E0,-1.933076046E0,2.662417966E0,3.652768615E0
3.186241542E0,-7.735261852E-1,-7.966017102E-1,1.275799890E0,1.691325635E0
3.196250542E0,-7.474232644E-2,3.351510722E-1,7.343418735E-1,8.106606218E-1
3.206259542E0,2.121484590E-1,1.105516106E0,1.736757535E-1,1.139006628E0
3.216268542E0,2.500034793E-1,1.648957791E0,-1.144503586E0,2.022733792E0
3.226276542E0,4.072926668E-1,1.988973966E0,-3.042349573E0,3.657566907E0
3.236285542E0,5.417102874E-1,2.137916290E0,-5.090455554E0,5.547690857E0
3.246294542E0,5.937988194E-1,2.141314691E0,-7.001986949E0,7.346131423E0
3.256303542E0,5.624691090E-1,2.050574675E0,-8.255700152E0,8.525128327E0
3.266312542E0,2.637860245E-1,1.816019174E0,-8.980778282E0,9.166345360E0
3.276321542E0,-9.564318052E-2,1.676297325E0,-9.310312153E0,9.460498545E0
3.286329542E0,-1.483062927E-1,1.505011475E0,-8.631802418E0,8.763279482E0
3.296338542E0,-1.089936712E-1,1.148618710E0,-7.159275881E0,7.251650550E0
3.306347542E0,-1.255384775E-1,8.320970135E-1,-5.618297744E0,5.680969538E0
3.316356542E0,-2.903578920E-1,5.312564526E-1,-4.360687373E0,4.402514678E0
3.326365542E0,-4.973673794E-1,3.683683734E-1,-3.843978281E0,3.893486689E0
3.336374542E0,-6.368459114E-1,2.194037573E-1,-4.178379959E0,4.232324398E0
3.346383542E0,-6.685682988E-1,1.733594191E-1,-4.866301957E0,4.915071902E0
3.356391542E0,-6.485507946E-1,3.228036531E-1,-5.491699678E0,5.539276639E0
3.366400542E0,-5.855824216E-1,2.950893127E-1,-5.807379157E0,5.844282432E0
3.376409542E0,-4.241741265E-1,2.522321456E-1,-5.668862126E0,5.690302501E0
3.386418542E0,-1.384991965E-1,3.222042404E-1,-5.521711097E0,5.532837522E0
3.396427542E0,1.216551954E-1,4.063199459E-1,-5.370891525E0,5.387612798E0
3.406436542E0,2.729828176E-1,4.945550148E-1,-5.481375834E0,5.510407001E0
3.416444542E0,3.100714872E-1,3.987024126E-1,-5.624617415E0,5.647249685E0
3.426453542E0,3.751349176E-1,2.298502466E-1,-5.431497915E0,5.449286829E0
3.436462542E0,6.761478983E-1,3.163416758E-2,-4.845557790E0,4.892607383E0
3.446471542E0,7.337560556E-1,-7.456676379E-2,-4.227089605E0,4.290949158E0
3.456480542E0,6.920855078E-1,-7.088886514E-2,-4.020474147E0,4.080223026E0
3.466489542E0,8.779308520E-1,8.494294032E-2,-3.615877229E0,3.721900861E0
3.476497542E0,1.193823242E0,3.594790708E-1,-2.989241652E0,3.238827688E0
3.486506542E0,1.226836330E0,4.076881944E-1,-2.285240981E0,2.625578676E0
3.496515542E0,7.718435758E-1,2.547829203E-1,-1.520812844E0,1.724392226E0
3.506524542E0,2.666108509E-1,1.004466864E-1,-6.618580341E-1,7.205740350E-1
3.516533542E0,7.138682865E-2,-1.878856570E-3,1.014835732E0,1.017345159E0
3.526542542E0,-3.862366605E-1,-1.630879077E-1,3.430258538E0,3.455785013E0
3.536551542E0,-1.434913007E0,-3.395431352E-1,5.988986658E0,6.167838039E0
3.546559542E0,-2.744262320E0,-2.759784923E-1,8.046003796E0,8.505605028E0
3.556568542E0,-3.682104840E0,4.934202164E-2,8.415475320E0,9.185888936E0
3.566577542E0,-4.239884482E0,6.867478770E-1,7.116108811E0,8.311873897E0
3.576586542E0,-4.271438981E0,1.214244935E0,5.732200921E0,7.251048830E0
3.586595542E0,-3.564251285E0,1.469572670E0,5.635481542E0,6.828043883E0
3.596604542E0,-2.860852877E0,2.283074149E0,7.158629179E0,8.040079507E0
3.606612542E0,-1.564428687E0,2.764478776E0,7.276219609E0,7.939342027E0
3.616621542E0,-5.656124990E-1,2.312144020E0,7.044066437E0,7.435374869E0
3.626630542E0,6.320077059E-1,2.124066575E0,7.923100001E0,8.227187015E0
3.636639542E0,1.736942891E0,1.607662561E0,9.654760517E0,9.940621216E0
3.646648042E0,1.864354744E0,2.378914838E-1,1.110976821E1,1.126762445E1
3.656657042E0,1.378037286E0,-1.571986652E0,1.023120067E1,1.044258569E1
3.666665042E0,7.839851730E-1,-2.661348802E0,6.856406482E0,7.396466727E0
3.676674042E0,7.354883663E-1,-2.644926312E0,2.708229731E0,3.856304787E0
3.686683042E0,1.326052616E0,-2.046776032E0,-3.977135754E-1,2.471008650E0
3.696692042E0,1.866433429E0,-1.370133020E0,-1.444170465E0,2.728821462E0
3.706701042E0,2.108628025E0,-6.688352242E-1,-3.809811831E-1,2.244727014E0
3.716710042E0,1.889329079E0,-2.942180410E-1,1.184452348E0,2.249234534E0
3.726719042E0,1.060884163E0,-1.976347196E-1,1.952986400E0,2.231297956E0
3.736727042E0,3.231412567E-2,1.416743807E-1,1.720219855E0,1.726346484E0
3.746736042E0,-7.291835330E-1,6.830621577E-1,7.088673091E-1,1.225061385E0
3.756745042E0,-1.067023228E0,1.182255476E0,-1.014261535E0,1.888118916E0
3.766754042E0,-8.034704344E-1,1.296311046E0,-2.838991599E0,3.222710096E0
3.776763042E0,-2.440554723E-2,1.496986464E0,-4.087158133E0,4.352749212E0
3.786772042E0,8.659550234E-1,2.165102919E0,-4.905036837E0,5.431108094E0
3.796780042E0,1.448372128E0,2.800729759E0,-5.421126709E0,6.271402060E0
3.806789042E0,1.661473318E0,3.150014648E0,-5.696192597E0,6.717863944E0
3.816798042E0,1.273942814E0,2.892090457E0,-5.338043037E0,6.203371742E0
3.826807042E0,8.674601698E-1,2.330407214E0,-4.276643003E0,4.947015293E0
3.836816042E0,7.765562855E-1,1.481858840E0,-2.868903615E0,3.321077120E0
3.846825042E0,6.690413386E-1,9.163343411E-1,-1.783694889E0,2.113966034E0
3.856834042E0,3.238899927E-1,6.173396000E-1,-1.586677051E0,1.733077313E0
3.866842042E0,5.967273608E-2,3.213786501E-1,-2.243564367E0,2.267250789E0
3.876851042E0,-1.104029598E-1,1.968155247E-1,-3.256408537E0,3.264218394E0
3.886860042E0,-2.682337090E-2,3.642194085E-1,-4.056309977E0,4.072717263E0
3.896869042E0,1.595622560E-1,8.217720001E-1,-4.469266074E0,4.546988957E0
3.906878042E0,3.787659654E-1,1.224547802E0,-4.606374511E0,4.781387571E0
3.916887042E0,3.955051916E-1,1.428927212E0,-4.197888025E0,4.452024394E0
3.926895042E0,2.392261107E-1,1.257873496E0,-3.628316596E0,3.847616949E0
3.936904042E0,7.038399462E-2,6.292924051E-1,-2.871949430E0,2.940927807E0
3.946913042E0,-1.891945562E-1,2.275093869E-1,-1.907553535E0,1.930366698E0
3.956922042E0,-1.942742151E-1,4.900982670E-2,-1.281452978E0,1.297022039E0
3.966931042E0,6.650454976E-2,-3.586263640E-1,-8.711579490E-1,9.444320495E-1
3.976940042E0,3.063562760E-1,-7.143386219E-1,-3.593114018E-1,8.562934766E-1
3.986948042E0,4.791726350E-1,-8.999869879E-1,-3.127962166E-1,1.066501039E0
3.996957042E0,6.033870105E-1,-9.474842861E-1,-8.341427350E-1,1.399141329E0
4.006966042E0,8.438187075E-1,-6.372877416E-1,-1.413039889E0,1.764893029E0
4.016975042E0,6.749436642E-1,-6.572709665E-1,-1.271104576E0,1.582169686E0
4.026984042E0,-1.077705250E-1,-1.019149662E0,7.737094223E-2,1.027748404E0
4.036993042E0,-5.802719072E-1,-1.550273602E0,2.142261356E0,2.707276757E0
4.047002042E0,-1.191453512E0,-1.602692574E0,4.507201640E0,4.929812530E0
4.057010042E0,-1.630815781E0,-1.403340966E0,6.142632190E0,6.508521814E0
4.067019042E0,-1.569533160E0,-8.876020736E-1,6.220015996E0,6.476099966E0
4.077028042E0,-1.141977735E0,-3.454672417E-1,5.505016127E0,5.632820193E0
4.087037042E0,-9.491573207E-1,4.703017876E-2,5.400760857E0,5.483733153E0
4.097046042E0,-6.665741059E-1,1.765237860E-1,5.835085604E0,5.875687678E0
4.107055042E0,-8.821493988E-1,5.841988242E-1,7.115856797E0,7.194087418E0
4.117063042E0,-1.235708310E0,1.299958977E0,7.663534496E0,7.870618105E0
4.127072042E0,-1.366577621E0,1.320836607E0,7.400750685E0,7.640893563E0
4.137081042E0,-2.071346909E0,8.108844115E-1,6.916880726E0,7.265758771E0
4.147090042E0,-2.714140973E0,2.520948091E-1,5.907882269E0,6.506395770E0
4.157099042E0,-2.121340018E0,2.943766102E-2,5.456741515E0,5.854654388E0
4.167108042E0,-1.329017739E0,-8.241548136E-2,5.343805468E0,5.507207763E0
4.177117042E0,-1.906437155E-2,-6.742785434E-1,4.706330908E0,4.754425898E0
4.187125042E0,1.877801732E0,-9.294729616E-1,3.472145652E0,4.055348907E0
4.197134042E0,3.014394912E0,-3.137493128E-1,1.484194071E0,3.374588473E0
4.207143042E0,3.106402605E0,1.407637500E-1,6.775285721E-2,3.110328283E0
4.217152042E0,2.310482680E0,2.384574942E-2,5.833615029E-1,2.383109204E0
4.227161042E0,1.021585465E0,-8.157387699E-1,3.536390179E0,3.770294697E0
4.237170042E0,-4.215236202E-1,-1.731354854E0,7.224225583E0,7.440746405E0
4.247178042E0,-2.012515733E0,-2.077496572E0,9.511276862E0,9.941358012E0
4.257187042E0,-2.967039775E0,-2.342085857E0,8.578533699E0,9.374429669E0
4.267196042E0,-3.169868576E0,-2.153548821E0,5.283583825E0,6.527028217E0
4.277205042E0,-1.811722786E0,-1.167960861E0,1.485255926E0,2.617719846E0
4.287214042E0,6.425951131E-1,6.385941558E-1,-1.660033879E0,1.891148713E0
4.297223042E0,1.958428111E0,2.918021981E0,-3.729025530E0,5.124053508E0
4.307232042E0,2.201684708E0,3.995274109E0,-5.192688273E0,6.911847962E0
4.317240042E0,1.559773427E0,3.611528947E0,-5.918253475E0,7.106458941E0
4.327249042E0,5.855371787E-1,2.403357222E0,-5.833329100E0,6.336143000E0
4.337258042E0,-6.449011087E-2,1.247299245E0,-4.861133603E0,5.019017264E0
4.347267042E0,-5.349927137E-1,6.680807141E-1,-3.842755044E0,3.936916988E0
4.357276042E0,-7.266361935E-1,4.265998439E-1,-3.526565103E0,3.625830803E0
4.367285042E0,-2.747985242E-1,5.867884829E-1,-4.107414642E0,4.158207546E0
4.377293042E0,4.657613515E-1,8.851572796E-1,-5.285112287E0,5.378926373E0
4.387302042E0,1.083095689E0,1.270467522E0,-6.304450375E0,6.521754252E0
4.397311042E0,1.390208997E0,1.625688358E0,-6.953749174E0,7.275312452E0
4.407320042E0,1.444082026E0,1.689079923E0,-7.394361432E0,7.721071485E0
4.417329042E0,1.133979475E0,1.525709156E0,-7.628236610E0,7.861532399E0
4.427338042E0,8.747583720E-1,1.215296996E0,-7.654470727E0,7.799555828E0
4.437347042E0,7.874813694E-1,9.293719509E-1,-7.580294704E0,7.677546934E0
4.447355042E0,6.337534652E-1,7.542965933E-1,-7.485173954E0,7.549730851E0
4.457364042E0,5.579472013E-1,7.160389191E-1,-7.447610271E0,7.502727208E0
4.467373042E0,3.983091508E-1,5.841735350E-1,-7.024386463E0,7.059880600E0
4.477382042E0,2.632934696E-1,2.374825441E-1,-5.977232586E0,5.987740040E0
4.487391042E0,6.255161270E-2,-1.204812938E-1,-4.749003303E0,4.750943150E0
4.497400042E0,-1.486000057E-1,-4.632364507E-1,-3.723607500E0,3.755252692E0
4.507408042E0,-2.421331636E-1,-6.133441975E-1,-2.748316487E0,2.826316169E0
4.517417042E0,3.745543621E-3,-8.149315618E-1,-1.762284724E0,1.941590824E0
4.527426042E0,3.210597210E-1,-8.236878403E-1,-8.085278374E-1,1.198022649E0
4.537435042E0,3.608032824E-1,-7.638435616E-1,-1.095639575E-1,8.518452065E-1
4.547444042E0,2.510385096E-1,-1.108621270E0,2.429196507E-1,1.162355974E0
4.557453042E0,1.155269480E-1,-1.371480950E0,6.231126291E-1,1.510819585E0
4.567462042E0,-1.947100520E-1,-1.512199311E0,1.069645193E0,1.862471368E0
4.577470042E0,-3.187986758E-1,-1.906073604E0,2.895213162E0,3.480949358E0
4.587479042E0,-4.943937048E-1,-2.188785750E0,5.657476428E0,6.086234282E0
4.597488042E0,-7.808212446E-1,-2.346134323E0,7.101236418E0,7.519413990E0
4.607497042E0,-8.445318485E-1,-2.181438285E0,6.341736315E0,6.759402823E0
4.617506042E0,-4.894331828E-1,-1.554923015E0,4.793929800E0,5.063506033E0
4.627515042E0,1.115052330E-1,-9.482156266E-1,4.535458894E0,4.634860696E0
4.637524042E0,6.754819004E-1,-7.071735169E-1,5.813966045E0,5.895640030E0
4.647532542E0,7.606202108E-1,-4.967677474E-1,6.649923756E0,6.711691833E0
4.657541542E0,7.604097111E-1,-2.654191518E-1,6.834633206E0,6.881924245E0
4.667550542E0,2.969676577E-1,-1.211437833E-1,8.653160543E0,8.659102320E0
4.677559542E0,-4.355859911E-1,-8.516396508E-1,1.149199485E1,1.153173755E1
4.687568542E0,-8.632202806E-1,-1.427435880E0,1.377868536E1,1.387929727E1
4.697577542E0,-1.159199174E0,-1.402499552E0,1.466236336E1,1.477483154E1
4.707585542E0,-1.433205474E0,-1.252166614E0,1.465821652E1,1.478124862E1
4.717594542E0,-1.545428160E0,-1.303941077E0,1.341776012E1,1.356926296E1
4.727603542E0,-1.373667370E0,-1.146943118E0,9.947651643E0,1.010733465E1
4.737612542E0,-5.320584713E-1,-3.859336285E-1,6.155135291E0,6.190130971E0
4.747621542E0,5.716787660E-1,6.592813124E-1,3.652571431E0,3.755362368E0
4.757630542E0,1.265763437E0,1.422584884E0,2.139892064E0,2.864444601E0
4.767639542E0,1.577861350E0,1.703528101E0,1.288835088E0,2.655701473E0
4.777647542E0,1.078521924E0,1.461339644E0,4.071825564E-1,1.861322307E0
4.787656542E0,2.483601194E-1,1.389950404E0,4.854299963E-2,1.412799100E0
4.797665542E0,-4.651814174E-1,1.591252204E0,-1.090856552E-1,1.661438235E0
4.807674542E0,-7.416059426E-1,1.894864199E0,-7.976637107E-1,2.185579352E0
4.817683542E0,-3.549066212E-1,2.497398722E0,-2.305990995E0,3.417682484E0
4.827692542E0,1.665849812E-1,3.566885456E0,-4.437122760E0,5.695478979E0
4.837701542E0,5.252713888E-1,4.348718415E0,-6.572826464E0,7.898690373E0
4.847709542E0,5.076384887E-1,4.298403709E0,-7.685403083E0,8.820396353E0
4.857718542E0,2.993139078E-1,3.736747947E0,-7.964015892E0,8.802182864E0
4.867727542E0,2.574680714E-1,2.947996563E0,-7.440074379E0,8.006976977E0
4.877736542E0,5.090779271E-1,2.424412607E0,-6.135350068E0,6.616604664E0
4.887745542E0,6.372870107E-1,2.063889078E0,-4.851587439E0,5.310713091E0
4.897754542E0,3.925660522E-1,1.591201041E0,-4.338484325E0,4.637723051E0
4.907762542E0,9.762291983E-2,1.325496107E0,-4.601402623E0,4.789506891E0
4.917771542E0,-1.315241991E-1,1.215673410E0,-5.183978260E0,5.326236106E0
4.927780542E0,1.281159667E-1,1.358243000E0,-5.298750917E0,5.471562759E0
4.937789542E0,4.135391011E-1,1.794399094E0,-5.168405955E0,5.486647685E0
4.947798542E0,4.610262763E-1,1.729989236E0,-5.132874180E0,5.436157221E0
4.957807542E0,2.428114772E-1,1.308642239E0,-5.156577623E0,5.325579283E0
4.967815542E0,-3.979359157E-3,9.462544705E-1,-5.010722921E0,5.099289907E0
4.977824542E0,-3.056376898E-1,5.950496850E-1,-4.532687314E0,4.581784894E0
4.987833542E0,-3.831817827E-1,2.468311821E-1,-4.098032784E0,4.123302877E0
4.997842542E0,-3.289461166E-1,1.034439692E-1,-4.100635965E0,4.115108932E0
5.007851542E0,-4.975472178E-1,3.514023118E-2,-4.371215869E0,4.399581372E0
5.017860542E0,-5.310768334E-1,-1.197411094E-1,-4.715447887E0,4.746770408E0
5.027869542E0,-3.532012808E-1,-2.545451579E-1,-4.785265396E0,4.805029583E0
5.037877542E0,-1.372549455E-1,-3.247412011E-1,-4.586724358E0,4.600253917E0
5.047886542E0,-9.982218554E-2,-4.310165383E-1,-4.164623215E0,4.188057575E0
5.057895542E0,-2.421313729E-3,-5.857746488E-1,-3.318378498E0,3.369684504E0
5.067904542E0,-1.512621699E-1,-9.869165929E-1,-2.114734418E0,2.338586382E0
5.077913542E0,-1.546546513E-1,-1.462125364E0,-1.090900991E0,1.830790434E0
5.087922542E0,9.105669765E-2,-1.637834925E0,1.766397071E-1,1.649847311E0
5.097931542E0,1.759698903E-1,-1.419264981E0,1.734887010E0,2.248357495E0
5.107939542E0,-9.194079665E-2,-1.237350647E0,2.858102639E0,3.115804940E0
5.117948542E0,-9.455026647E-1,-1.634274994E0,4.018538134E0,4.439986349E0
5.127957542E0,-2.422804038E0,-2.157747560E0,6.469492714E0,7.237415970E0
5.137966542E0,-3.780831860E0,-2.679363196E0,9.010341219E0,1.013212345E1
5.147975542E0,-4.493334968E0,-2.954929022E0,9.969514382E0,1.132752761E1
5.157984542E0,-4.747181895E0,-2.461549736E0,9.090614135E0,1.054676388E1
5.167993542E0,-4.276225804E0,-1.470269073E0,7.214163694E0,8.514220815E0
5.178001542E0,-2.814422768E0,-2.916599938E-1,5.646140431E0,6.315452703E0
5.188010542E0,-9.870590457E-1,1.924949586E0,4.756236894E0,5.225084292E0
5.198019542E0,1.162652978E0,4.149246792E0,4.445974275E0,6.191502091E0
5.208028542E0,2.449454770E0,4.793871035E0,5.830754571E0,7.935913750E0
5.218037542E0,2.313298261E0,3.541372007E0,8.349538608E0,9.359885656E0
5.228046542E0,1.217640487E0,1.721967587E0,1.016438922E1,1.038087804E1
5.238054542E0,1.686037324E-2,5.445813069E-1,1.116335911E1,1.117664707E1
5.248063542E0,-9.691342599E-1,-5.048534234E-1,1.159231319E1,1.164370316E1
5.258072542E0,-1.658237176E0,-1.639664080E0,1.069252961E1,1.094387675E1
5.268081542E0,-1.729482137E0,-2.225457440E0,8.475727369E0,8.932061560E0
5.278090542E0,-9.126984693E-1,-1.838796126E0,6.094621287E0,6.431065100E0
5.288099542E0,3.966011426E-1,-8.724781041E-1,3.999755707E0,4.112974134E0
5.298108542E0,1.115709046E0,1.630437613E-2,2.012588823E0,2.301214088E0
5.308116542E0,1.150498517E0,5.367594865E-1,6.576158792E-1,1.429760899E0
5.318125542E0,1.492030071E0,6.069287787E-1,-2.040871221E-1,1.623627984E0
5.328134542E0,1.597841432E0,3.163585231E-1,-6.278950667E-1,1.745689598E0
5.338143542E0,1.163377521E0,3.165351821E-1,-3.223447198E-1,1.248017587E0
5.348152542E0,3.689552512E-1,3.627054547E-1,-2.748834550E-1,5.858704107E-1
5.358161542E0,-3.281135827E-1,6.683075861E-1,-1.330721617E0,1.524832311E0
5.368170542E0,-4.373876645E-1,1.128413511E0,-3.048413721E0,3.279855368E0
5.378178542E0,-8.347444866E-2,1.622843249E0,-4.884746999E0,5.147945361E0
5.388187542E0,5.360307042E-1,2.258760403E0,-6.511070511E0,6.912551386E0
5.398196542E0,1.071819845E0,2.654366057E0,-7.369600813E0,7.906040291E0
5.408205542E0,1.041011304E0,2.478564548E0,-7.359461741E0,7.835091823E0
5.418214542E0,7.005341497E-1,1.707786189E0,-6.675098943E0,6.925621103E0
5.428223542E0,4.093400328E-1,1.053731995E0,-5.730586504E0,5.841021491E0
5.438231542E0,2.986178881E-1,7.959038450E-1,-4.675703777E0,4.752351143E0
5.448240542E0,4.548568425E-1,5.516438663E-1,-4.092231762E0,4.154222731E0
5.458249542E0,7.846365528E-1,4.659787218E-1,-4.134591331E0,4.234103939E0
5.468258542E0,1.040077139E0,5.783771170E-1,-4.350857618E0,4.510680942E0
5.478267542E0,1.119646195E0,6.389541250E-1,-4.576248486E0,4.754358020E0
5.488276542E0,8.841492927E-1,5.243725987E-1,-4.883936575E0,4.990944105E0
5.498285542E0,5.201632978E-1,1.905155884E-1,-5.207118031E0,5.236501145E0
5.508293542E0,2.072676054E-1,-2.059806698E-1,-5.253793430E0,5.261913464E0
5.518302542E0,4.188685823E-2,-4.451831724E-1,-5.445173968E0,5.463502733E0
5.528311542E0,8.277106516E-2,-7.028977405E-1,-5.903526093E0,5.945799914E0
5.538320542E0,8.750186462E-2,-8.919534253E-1,-6.407247934E0,6.469626232E0
5.548329542E0,1.387160003E-1,-9.379166333E-1,-6.722002968E0,6.788538403E0
5.558338542E0,3.679455832E-1,-8.278813903E-1,-6.741215165E0,6.801819863E0
5.568347542E0,5.675140501E-1,-7.119113696E-1,-6.497493861E0,6.560969171E0
5.578355542E0,6.599438019E-1,-7.033734114E-1,-5.924665532E0,6.002659548E0
5.588364542E0,7.128473626E-1,-7.848083147E-1,-5.237732883E0,5.343961191E0
5.598373542E0,8.001392026E-1,-9.009812339E-1,-4.158015862E0,4.329097577E0
5.608382542E0,8.303102506E-1,-9.649750623E-1,-2.749560190E0,3.029962577E0
5.618391542E0,4.404647982E-1,-9.383711082E-1,-1.177421072E0,1.568716021E0
5.628400542E0,-3.004888875E-1,-1.058716454E0,3.333380699E-1,1.149907984E0
5.638409542E0,-5.865951228E-1,-1.293347384E0,1.844153345E0,2.327604531E0
5.648417292E0,-1.131661347E0,-1.188572735E0,3.101836222E0,3.509237880E0
5.658426292E0,-2.185487043E0,-9.203473583E-1,3.918308671E0,4.580014816E0
5.668435292E0,-2.183352956E0,-6.707174429E-1,4.861690258E0,5.371491803E0
5.678444292E0,-1.565790796E0,-1.063918430E-1,5.208755252E0,5.440050672E0
5.688453292E0,-1.734956300E0,6.337957844E-1,5.421455323E0,5.727473114E0
5.698462292E0,-2.453034436E0,1.261472165E0,5.802655776E0,6.424912764E0
5.708470292E0,-3.010124983E0,1.236679386E0,6.354069262E0,7.138937211E0
5.718479292E0,-2.763649641E0,1.248765289E0,7.840703961E0,8.406771835E0
5.728488292E0,-2.187618207E0,2.372991316E0,9.723774034E0,1.024541569E1
5.738497292E0,-8.387514373E-1,3.627083710E0,9.596421677E0,1.029322832E1
5.748506292E0,3.189890758E-1,4.199791294E0,8.697159671E0,9.663363146E0
5.758515292E0,8.283134264E-1,3.926544767E0,7.546315364E0,8.546972126E0
5.768524292E0,1.171849040E0,3.522025325E0,6.161571906E0,7.193251067E0
5.778533292E0,1.547978131E0,3.046853976E0,5.411227373E0,6.400073213E0
5.788541292E0,1.391527398E0,2.104261909E0,5.609639772E0,6.150798733E0
5.798550292E0,4.953524289E-1,7.444641347E-1,6.339669324E0,6.402422043E0
5.808559292E0,-6.628582735E-1,-6.095351020E-1,6.491439069E0,6.553601706E0
5.818568292E0,-1.078026518E0,-1.137004825E0,5.875223231E0,6.080556649E0
5.828577292E0,-2.395323586E-1,-8.258522603E-1,4.534320441E0,4.615134838E0
5.838586292E0,1.264894248E0,-3.458277225E-2,3.587382578E0,3.804006728E0
5.848594292E0,2.418312207E0,4.941549191E-1,4.515719864E0,5.146275246E0
5.858603292E0,3.109686986E0,6.382928049E-1,6.249362002E0,7.009429099E0
5.868612292E0,2.742412553E0,9.298835092E-1,6.570731406E0,7.180530702E0
5.878621292E0,1.793385187E0,1.133328095E0,5.250493262E0,5.662891708E0
5.888630292E0,6.912743528E-1,1.455388933E0,2.920845602E0,3.335769207E0
5.898639292E0,-3.171931035E-1,1.998705925E0,5.202823251E-1,2.089528784E0
5.908648292E0,-9.867547712E-1,2.421135389E0,-1.443089899E0,2.986317131E0
5.918656292E0,-1.265429853E0,2.736112471E0,-3.081285598E0,4.310678033E0
5.928665292E0,-1.254573620E0,2.867751422E0,-4.530540217E0,5.506700268E0
5.938674292E0,-1.080048266E0,2.849133010E0,-5.426420193E0,6.223351129E0
5.948683292E0,-7.466837378E-1,2.709664637E0,-5.817937474E0,6.461285902E0
5.958692292E0,-4.208877355E-1,2.356336107E0,-6.054136335E0,6.510148470E0
5.968701292E0,-3.611885773E-1,1.976063752E0,-6.690277730E0,6.985349043E0
5.978710292E0,-5.212522686E-1,1.642772314E0,-7.623459435E0,7.815851748E0
5.988718292E0,-7.203348684E-1,1.332700607E0,-8.421553500E0,8.556724641E0
5.998727292E0,-8.313916931E-1,1.044661210E0,-8.810434856E0,8.911020792E0
6.008736292E0,-8.047550677E-1,8.830327669E-1,-8.754890985E0,8.836033825E0
6.018745292E0,-7.518877597E-1,8.122855505E-1,-8.730705147E0,8.800588355E0
6.028754292E0,-7.602233311E-1,7.359568745E-1,-8.981345462E0,9.043458317E0
6.038763292E0,-6.619037155E-1,6.926751264E-1,-9.203518606E0,9.253251866E0
6.048772292E0,-4.914570138E-1,6.904091111E-1,-9.264020916E0,9.302702740E0
6.058780292E0,-1.094419242E-1,8.578686165E-1,-9.052987887E0,9.094201767E0
6.068789292E0,2.680089932E-1,1.017308593E0,-8.786778776E0,8.849532578E0
6.078798292E0,4.309484182E-1,1.000260158E0,-8.495247713E0,8.564780828E0
6.088807292E0,4.894441098E-1,8.904158268E-1,-8.104487062E0,8.167931588E0
6.098816292E0,2.773190762E-1,5.972020085E-1,-7.433008019E0,7.462115271E0
6.108825292E0,-8.219620164E-2,1.973790501E-1,-6.669435915E0,6.672862214E0
6.118834292E0,-2.891493091E-1,-1.269605935E-1,-5.781402901E0,5.790021228E0
6.128842292E0,-6.188681352E-1,-3.773062080E-1,-4.487841509E0,4.545995947E0
6.138851292E0,-9.249951638E-1,-4.316541041E-1,-2.982499813E0,3.152339838E0
6.148860292E0,-9.937750114E-1,-4.721733351E-1,-1.770685419E0,2.084673424E0
6.158869292E0,-1.182914604E0,-4.955519651E-1,-9.973063642E-1,1.624647252E0
6.168878292E0,-1.235747925E0,-2.937285925E-1,8.891626954E-2,1.273285326E0
6.178887292E0,-1.058050383E0,-1.368024807E-1,1.920666500E0,2.197076543E0
6.188896292E0,-8.650297746E-1,-1.707188165E-1,4.558873485E0,4.643355347E0
6.198904292E0,-1.108038595E0,-4.790411822E-1,6.878379149E0,6.983504114E0
6.208913292E0,-1.789443140E0,-5.416511209E-1,8.545615629E0,8.747744805E0
6.218922292E0,-2.346202151E0,-3.496936092E-1,8.819361801E0,9.132803114E0
6.228931292E0,-2.353582653E0,-2.800091243E-1,8.488114695E0,8.812822901E0
6.238940292E0,-2.197968948E0,-4.007973969E-3,8.663354579E0,8.937829497E0
6.248949292E0,-2.440409420E0,6.780109674E-1,9.566305009E0,9.895932928E0
6.258958292E0,-2.489356754E0,1.352942206E0,1.140954794E1,1.175606796E1
6.268966292E0,-2.446766805E0,1.811994682E0,1.352860930E1,1.386698461E1
6.278975292E0,-2.065932679E0,2.297850502E0,1.396138512E1,1.429924716E1
6.288984292E0,-1.944893561E0,2.317312520E0,1.425749514E1,1.457493451E1
6.298993292E0,-2.024354298E0,2.122376729E0,1.358352167E1,1.389656628E1
6.309002292E0,-1.452882378E0,2.333517055E0,1.168391801E1,1.200292086E1
6.319011292E0,-4.548437959E-1,2.236955844E0,1.095883637E1,1.119405865E1
6.329020292E0,4.340339208E-1,1.625463094E0,1.221273786E1,1.232807696E1
6.339028292E0,1.720157290E-1,7.538964245E-1,1.274315750E1,1.276659752E1
6.349037292E0,-1.038277146E0,-3.558229530E-1,1.072689955E1,1.078290329E1
6.359046292E0,-2.015142741E0,-9.152557491E-1,7.452454689E0,7.774160678E0
6.369055292E0,-1.841062360E0,-5.684660134E-1,4.253662276E0,4.669722367E0
6.379064292E0,-8.298447391E-1,2.377360940E-1,1.785971210E0,1.983646618E0
6.389073292E0,4.419210473E-1,1.193269511E0,1.087576264E-1,1.277111804E0
6.399082292E0,1.441587165E0,2.210464010E0,-1.213331746E0,2.904565134E0
6.409090292E0,1.310313958E0,2.934224323E0,-1.789316987E0,3.678076988E0
6.419099292E0,4.850660071E-2,3.232599552E0,-1.573699740E0,3.595633967E0
6.429108292E0,-8.627544037E-1,3.046405787E0,-1.849653236E0,3.666899299E0
6.439117292E0,-1.090413187E0,2.825096861E0,-2.581491916E0,3.979230290E0
6.449126292E0,-8.185217522E-1,2.767438636E0,-3.768015933E0,4.746223608E0
6.459135292E0,-6.719724016E-1,3.123219197E0,-5.009540614E0,5.941510097E0
6.469144292E0,-4.951598727E-1,3.295273810E0,-6.312729447E0,7.138246694E0
6.479152292E0,-1.879532288E-1,3.225473550E0,-7.632810887E0,8.288474411E0
6.489161292E0,1.789435101E-1,3.278111355E0,-8.871180995E0,9.459169471E0
6.499170292E0,3.290833069E-1,3.077431113E0,-9.556443095E0,1.004512233E1
6.509179292E0,2.843434094E-1,2.682066364E0,-9.465690215E0,9.842439860E0
6.519188292E0,5.578705662E-1,2.368983488E0,-8.610264784E0,8.947623259E0
6.529197292E0,3.808643118E-1,2.026331242E0,-7.931324109E0,8.194936123E0
6.539206292E0,-2.339387660E-1,1.365911477E0,-7.782431195E0,7.904851473E0
6.549214292E0,-8.576858179E-1,7.415626001E-1,-7.613292881E0,7.697257209E0
6.559223292E0,-1.187979681E0,2.545804605E-1,-7.157159189E0,7.259547823E0
6.569232292E0,-1.094279001E0,-4.924822865E-2,-6.227295195E0,6.322901024E0
6.579241292E0,-9.462324703E-1,-1.722168366E-1,-5.523624306E0,5.606731669E0
6.589250292E0,-9.244967618E-1,-3.038780981E-1,-5.268217927E0,5.357346011E0
6.599259292E0,-9.244493993E-1,-4.243580946E-1,-5.315858116E0,5.412303945E0
6.609268292E0,-6.222928494E-1,-5.369508366E-1,-5.285071356E0,5.348602045E0
6.619276292E0,-2.535411179E-1,-5.135645322E-1,-5.027916074E0,5.060431966E0
6.629285292E0,-1.067250246E-1,-5.974509903E-1,-5.286709746E0,5.321431937E0
6.639294292E0,-7.884389240E-2,-8.057702905E-1,-5.856900396E0,5.912593709E0
6.649306167E0,5.336015515E-2,-8.820347933E-1,-6.320131438E0,6.381605917E0
6.659315167E0,4.613778036E-1,-7.883483653E-1,-6.477335585E0,6.541424837E0
6.669324167E0,9.281337299E-1,-5.768254121E-1,-6.343261269E0,6.436701275E0
6.679333167E0,1.222183627E0,-3.587540891E-1,-6.273818566E0,6.401815111E0
6.689341167E0,1.413986261E0,-2.245365163E-1,-6.234325302E0,6.396607364E0
6.699350167E0,1.418040866E0,-2.530004697E-1,-5.267518015E0,5.460915232E0
6.709359167E0,1.132812079E0,-7.308293780E-1,-3.582302517E0,3.827566604E0
6.719368167E0,7.666005237E-1,-1.280371243E0,-1.690915364E0,2.255265317E0
6.729377167E0,5.274282074E-1,-1.440578813E0,2.678667963E-1,1.557305510E0
6.739386167E0,5.612583699E-1,-1.379917459E0,1.784209444E0,2.324346465E0
6.749395167E0,5.689647443E-1,-1.342387836E0,2.390010806E0,2.799620981E0
6.759403167E0,6.238880429E-1,-1.281469350E0,2.869199485E0,3.203701870E0
6.769412167E0,7.897295507E-1,-8.951081443E-1,4.555510166E0,4.709306130E0
6.779421167E0,2.462466067E-1,-5.409436078E-1,6.643725708E0,6.670258515E0
6.789430167E0,-1.133579087E0,-6.620452912E-1,7.387948206E0,7.503671382E0
6.799439167E0,-2.572820788E0,-9.648275663E-1,6.853126779E0,7.383471114E0
6.809448167E0,-3.569283983E0,-5.318444632E-1,6.449611596E0,7.390543717E0
6.819457167E0,-3.171649930E0,3.637789670E-1,8.492156290E0,9.072398629E0
6.829465167E0,-1.778055249E0,1.251390542E0,1.273086665E1,1.291520129E1
6.839474167E0,-8.904169963E-1,2.067841503E0,1.523223534E1,1.539772075E1
6.849483167E0,2.029357322E-1,2.209319856E0,1.430013771E1,1.447122026E1
6.859492167E0,8.413077669E-1,1.815710587E0,1.273840137E1,1.289462963E1
6.869501167E0,1.401795547E0,1.367726599E0,1.072462498E1,1.090198550E1
6.879510167E0,2.211903740E0,1.332257973E0,9.641213104E0,9.981002934E0
6.889519167E0,1.969310511E0,5.366081898E-1,1.210444391E1,1.227532870E1
6.899527167E0,2.935550764E-1,-1.371782227E0,1.494012482E1,1.500584189E1
6.909536167E0,-1.419396397E0,-2.796423869E0,1.382653897E1,1.417772381E1
6.919545167E0,-2.434181404E0,-2.660900905E0,1.033780009E1,1.094877817E1
6.929554167E0,-2.966201576E0,-1.933324260E0,8.580407732E0,9.282213708E0
6.939563167E0,-2.662562392E0,-1.969143280E0,8.156753569E0,8.803373929E0
6.949572167E0,-1.506737719E0,-1.554602880E0,7.066305152E0,7.390515352E0
6.959581167E0,-3.234403418E-1,-3.586587795E-1,5.394739394E0,5.416314513E0
6.969589167E0,6.628368580E-1,6.762278590E-1,2.754976466E0,2.913165314E0
6.979598167E0,1.197365339E0,1.642927265E0,-4.651161844E-1,2.085479997E0
6.989607167E0,1.188740331E0,2.508997259E0,-3.299738159E0,4.312359301E0
6.999616167E0,8.820805478E-1,3.098746553E0,-5.140460942E0,6.066682371E0
7.009625167E0,5.611162095E-1,3.049860322E0,-6.120029193E0,6.860849562E0
7.019634167E0,2.938900122E-1,2.743103402E0,-6.662401714E0,7.211004383E0
7.029643167E0,1.924778043E-1,2.560252490E0,-6.825164809E0,7.292106362E0
7.039651167E0,3.317419993E-1,2.554464624E0,-7.085707383E0,7.539402588E0
7.049660167E0,4.221398071E-1,2.475584223E0,-7.568115538E0,7.973900680E0
7.059669167E0,6.406252592E-1,2.364545451E0,-8.184143096E0,8.542931238E0
7.069678167E0,7.293061783E-1,2.238824760E0,-8.674449670E0,8.988342500E0
7.079687167E0,5.442340919E-1,1.897649959E0,-8.927977924E0,9.143634722E0
7.089696167E0,3.787602644E-1,1.408986745E0,-8.790114613E0,8.910376978E0
7.099705167E0,3.159084337E-1,8.932326499E-1,-8.208976221E0,8.263471020E0
7.109713167E0,1.487436645E-1,5.522578970E-1,-7.344508656E0,7.366744251E0
7.119722167E0,7.636196863E-2,3.353782000E-1,-6.717043360E0,6.725844273E0
7.129731167E0,-7.356773045E-2,1.821189136E-1,-6.385795670E0,6.388815684E0
7.139740167E0,-2.417305828E-1,5.860956609E-2,-6.159445859E0,6.164466079E0
7.149749167E0,-1.436033772E-1,-3.176434122E-2,-5.977493956E0,5.979303045E0
7.159758167E0,-1.519287890E-1,-2.205211602E-2,-5.795414584E0,5.797447616E0
7.169767167E0,-2.977449719E-1,-9.454487242E-2,-5.548238161E0,5.557025957E0
7.179775167E0,-4.277156754E-1,-2.490489945E-1,-5.332270081E0,5.355190969E0
7.189784167E0,-5.359298762E-1,-3.599656322E-1,-5.092369933E0,5.133130392E0
7.199793167E0,-5.531170723E-1,-4.997440167E-1,-4.949046491E0,5.004872001E0
7.209802167E0,-5.374969666E-1,-6.307961628E-1,-4.968003749E0,5.036652463E0
7.219811167E0,-4.238945565E-1,-6.287561423E-1,-5.219497756E0,5.274294049E0
7.229820167E0,-1.411026692E-1,-5.894277699E-1,-5.641603577E0,5.674066088E0
7.239829167E0,4.348325774E-1,-4.793841945E-1,-6.015173998E0,6.049893124E0
7.249837167E0,9.635923420E-1,-2.931782234E-1,-6.121162384E0,6.203474236E0
7.259846167E0,1.101820155E0,-1.809946402E-1,-5.654632342E0,5.763821097E0
7.269855167E0,1.048437707E0,-2.871818306E-1,-4.550760473E0,4.678794280E0
7.279864167E0,9.547614384E-1,-4.016831770E-1,-3.140494503E0,3.306905578E0
7.289873167E0,9.629226896E-1,-3.699956536E-1,-1.139601281E0,1.537142794E0
7.299882167E0,9.133749922E-1,-3.966146643E-1,1.587696220E0,1.874122823E0
7.309891167E0,1.008226039E0,-4.777784760E-1,3.628316011E0,3.795980650E0
7.319899167E0,5.882046785E-1,-5.695459941E-1,5.191560929E0,5.255727568E0
7.329908167E0,-6.500248776E-1,-9.804096651E-1,6.985139952E0,7.083496001E0
7.339917167E0,-2.244903818E0,-1.325289554E0,8.817615822E0,9.194908066E0
7.349926167E0,-2.959088731E0,-1.583228217E0,1.024329739E1,1.077905187E1
7.359935167E0,-3.088965915E0,-1.488796707E0,1.048613693E1,1.103255609E1
7.369944167E0,-3.192508410E0,-1.169590773E0,9.939444491E0,1.050488502E1
7.379953167E0,-2.829351295E0,-5.572064687E-1,9.895487462E0,1.030710337E1
7.389962167E0,-1.991942013E0,3.814727877E-1,1.140204479E1,1.158101809E1
7.399970167E0,-5.050730960E-1,1.323397103E0,1.271912778E1,1.279776114E1
7.409979167E0,1.057177832E0,1.763172770E0,1.399068435E1,1.414092118E1
7.419988167E0,1.934755951E0,1.648278637E0,1.529140449E1,1.550119848E1
7.429997167E0,1.349020479E0,1.239693480E0,1.462170417E1,1.473604183E1
7.440006167E0,3.881372248E-1,8.694922234E-1,1.152018662E1,1.155947088E1
7.450015167E0,1.527565355E-1,5.865611724E-1,9.021364390E0,9.041703602E0
7.460024167E0,-2.908522010E-2,9.631380133E-2,8.418125278E0,8.418726477E0
7.470032167E0,-7.318615577E-1,-7.785633422E-1,8.503781140E0,8.570652011E0
7.480041167E0,-1.356916413E0,-1.743262416E0,7.602089031E0,7.916561352E0
7.490050167E0,-1.287940318E0,-1.914599283E0,6.173976189E0,6.591089642E0
7.500059167E0,-1.922461449E-1,-1.366973331E0,4.775278936E0,4.970801101E0
7.510068167E0,1.052452186E0,-5.930619971E-1,3.435394147E0,3.641608310E0
7.520077167E0,1.457657360E0,2.262967840E-1,2.279619468E0,2.715260601E0
7.530086167E0,1.040845390E0,7.353720067E-1,8.605581164E-1,1.537755307E0
7.540094167E0,4.246698973E-1,9.215872604E-1,-9.953188956E-1,1.421382181E0
7.550103167E0,1.963142356E-1,1.449084173E0,-2.529883221E0,2.922104264E0
7.560112167E0,4.388697144E-2,2.012337686E0,-3.954216422E0,4.437032403E0
7.570121167E0,9.075792320E-2,2.360897227E0,-5.321154524E0,5.822092252E0
7.580130167E0,2.849587192E-1,2.739656176E0,-6.464460016E0,7.026817255E0
7.590139167E0,2.898446526E-1,3.005524979E0,-7.576938987E0,8.156420461E0
7.600148167E0,2.560531548E-1,3.038033159E0,-8.584440556E0,9.109765549E0
7.610156167E0,4.495791822E-1,2.818040441E0,-9.119580072E0,9.555637815E0
7.620165167E0,6.129545171E-1,2.491974845E0,-9.003560788E0,9.362144986E0
7.630174167E0,6.236900416E-1,2.090127142E0,-8.402347151E0,8.680844336E0
7.640183167E0,6.440330896E-1,1.589225852E0,-7.733371301E0,7.921202504E0
7.650189542E0,6.039524728E-1,1.292687380E0,-7.133186774E0,7.274486429E0
7.660198542E0,5.364497302E-1,1.117009028E0,-6.781983706E0,6.894257790E0
7.670207542E0,6.256056625E-1,9.045747864E-1,-6.773024018E0,6.861741203E0
7.680215542E0,9.544110440E-1,8.185591744E-1,-6.963518702E0,7.076124100E0
7.690224542E0,1.055381860E0,8.854300522E-1,-7.143802394E0,7.275419568E0
7.700233542E0,7.772677454E-1,8.342729817E-1,-7.243998528E0,7.333189703E0
7.710242542E0,4.200397065E-1,6.638789050E-1,-7.234100361E0,7.276632228E0
7.720251542E0,3.905811234E-2,3.855409149E-1,-7.189103113E0,7.199539631E0
7.730260542E0,-3.833653852E-1,1.549437048E-1,-7.136615582E0,7.148584372E0
7.740269542E0,-7.363055147E-1,-5.229877587E-4,-7.039778089E0,7.078179259E0
7.750277542E0,-9.754918644E-1,-1.315251401E-1,-6.716480273E0,6.788224399E0
7.760286542E0,-9.680322790E-1,-2.335471304E-1,-6.150252281E0,6.230347814E0
7.770295542E0,-6.982210643E-1,-2.058684763E-1,-5.541766462E0,5.589371164E0
7.780304542E0,-4.693986851E-1,-9.801769825E-2,-5.007719207E0,5.030625632E0
7.790313542E0,-2.463390658E-1,-1.095841669E-1,-4.633800876E0,4.641637877E0
7.800322542E0,1.728599573E-2,-1.832412136E-1,-4.381311672E0,4.385175950E0
7.810331542E0,5.052680275E-1,-1.154592665E-1,-3.993851774E0,4.027341383E0
7.820339542E0,9.959677903E-1,1.983098903E-1,-3.218711538E0,3.375112237E0
7.830348542E0,9.650963920E-1,5.116649180E-1,-2.019190330E0,2.295722462E0
7.840357542E0,3.524473554E-1,3.465999936E-1,-4.804546005E-1,6.893383182E-1
7.850366542E0,-1.343998049E-1,-3.336731154E-1,9.659401453E-1,1.030747990E0
7.860375542E0,-4.687694151E-1,-1.025596655E0,3.013129867E0,3.217226268E0
7.870384542E0,-9.692539085E-1,-1.208053757E0,6.090013096E0,6.283876712E0
7.880393542E0,-1.715231887E0,-1.456500489E0,8.558855479E0,8.849713058E0
7.890401542E0,-2.625994197E0,-1.618726517E0,9.871268295E0,1.034205293E1
7.900410542E0,-3.895665329E0,-1.451609585E0,1.029219181E1,1.110011671E1
7.910419542E0,-4.451823830E0,-1.017780536E0,1.005261384E1,1.104127065E1
7.920428542E0,-4.262514376E0,-2.100242387E-1,9.567601336E0,1.047626528E1
7.930437542E0,-3.187925947E0,5.780162707E-1,9.606140919E0,1.013779651E1
7.940446542E0,-1.742437520E0,1.253768897E0,1.046941858E1,1.068722369E1
7.950455542E0,-2.096554621E-1,2.026798288E0,1.088316054E1,1.107226490E1
7.960464542E0,1.445747167E0,2.781945578E0,1.093957915E1,1.137997356E1
7.970472542E0,2.157645088E0,3.060464247E0,1.172253068E1,1.230607977E1
7.980481542E0,1.540072257E0,2.697833674E0,1.176632165E1,1.216948866E1
7.990490542E0,3.062792389E-1,2.375947229E0,9.880430882E0,1.016670284E1
8.000499542E0,-6.197108652E-1,1.822219708E0,8.361152347E0,8.579824870E0
8.010508542E0,-1.353521665E0,5.722148826E-1,9.286372483E0,9.401923455E0
8.020517542E0,-2.316538641E0,-6.664705371E-1,1.142630138E1,1.167779506E1
8.030526542E0,-2.986949252E0,-1.650182344E0,1.224854854E1,1.271502690E1
8.040534542E0,-2.624071341E0,-1.965185885E0,1.122148278E1,1.169056806E1
8.050543542E0,-1.281095713E0,-1.326033466E0,8.907529042E0,9.096353369E0
8.060552542E0,4.671033240E-1,-1.360310319E-1,6.012552692E0,6.032203563E0
8.070561542E0,2.060262050E0,9.401901770E-1,3.198492451E0,3.919054891E0
8.080570542E0,3.047840986E0,1.713099115E0,7.422057939E-1,3.574200987E0
8.090579542E0,2.899999401E0,2.349979160E0,-9.977162540E-1,3.863655821E0
8.100588542E0,1.802101047E0,2.471436500E0,-1.859237992E0,3.579431864E0
8.110596542E0,6.281005964E-1,2.432874698E0,-2.280265000E0,3.393080920E0
8.120605542E0,1.071312599E-1,2.556534538E0,-2.638055542E0,3.675143942E0
8.130614542E0,2.879059352E-2,2.938482850E0,-3.382775053E0,4.480923724E0
8.140623542E0,2.521801785E-2,3.425341906E0,-4.794645499E0,5.892557050E0
8.150632542E0,2.744123156E-1,3.412503760E0,-6.078047354E0,6.975897338E0
8.160641542E0,3.705841027E-1,3.129506708E0,-7.163667725E0,7.826191927E0
8.170650542E0,4.686410321E-1,2.679713445E0,-8.241903647E0,8.679254823E0
8.180658542E0,4.794345171E-1,2.339823716E0,-8.985655444E0,9.297668323E0
8.190667542E0,3.177090107E-1,2.166720697E0,-9.254756003E0,9.510316833E0
8.200676542E0,8.475853376E-2,1.851929264E0,-9.463251926E0,9.643130354E0
8.210685542E0,-2.071789835E-1,1.379228949E0,-9.563634000E0,9.664796476E0
8.220694542E0,-4.692796577E-1,1.009771020E0,-9.663323765E0,9.727265139E0
8.230703542E0,-7.400224435E-1,6.273038401E-1,-9.704272401E0,9.752643034E0
8.240712542E0,-9.644241084E-1,4.583162015E-1,-9.760683998E0,9.818916423E0
8.250721542E0,-1.110883046E0,3.031473606E-1,-9.932901456E0,9.999424524E0
8.260729542E0,-1.256435666E0,7.755326573E-2,-9.669593734E0,9.751189060E0
8.270738542E0,-1.270175161E0,-1.154832035E-1,-8.898129643E0,8.989070722E0
8.280747542E0,-1.292956937E0,-3.965643051E-1,-7.717325372E0,7.834928959E0
8.290756542E0,-1.403358654E0,-7.040623596E-1,-6.631305052E0,6.814640564E0
8.300765542E0,-1.576954593E0,-1.143539746E0,-5.694364173E0,6.018326368E0
8.310774542E0,-1.751087306E0,-1.438309947E0,-5.017061303E0,5.505083685E0
8.320783542E0,-1.896457712E0,-1.748158143E0,-4.779974250E0,5.431460446E0
8.330791542E0,-2.091540999E0,-2.019167672E0,-4.677970743E0,5.507721135E0
8.340800542E0,-2.141880117E0,-2.054798996E0,-4.252260699E0,5.185708283E0
8.350809542E0,-1.843789063E0,-1.959664505E0,-3.695504027E0,4.571279153E0
8.360818542E0,-1.297979695E0,-1.845707535E0,-3.012419431E0,3.763782461E0
8.370827542E0,-1.143198707E0,-1.855931976E0,-1.909491302E0,2.897851586E0
8.380836542E0,-1.225221548E0,-2.097517146E0,-8.559107494E-1,2.575525039E0
8.390845542E0,-1.260214575E0,-2.159772743E0,-1.554950058E-1,2.505381762E0
8.400853542E0,-1.140364781E0,-2.216516755E0,6.382814759E-1,2.573087951E0
8.410862542E0,-8.519101576E-1,-2.463735133E0,2.161226215E0,3.386242825E0
8.420871542E0,-8.132952185E-1,-2.440858047E0,4.151723673E0,4.884265203E0
8.430880542E0,-1.145505434E0,-2.439035032E0,6.111076521E0,6.678797110E0
8.440889542E0,-1.640869191E0,-2.506491435E0,7.784556073E0,8.341118886E0
8.450898542E0,-2.081226218E0,-2.195287415E0,8.952167856E0,9.449449652E0
8.460907542E0,-2.709844732E0,-1.280602501E0,9.731892309E0,1.018297251E1
8.470915542E0,-3.154857019E0,7.817975834E-2,1.016514000E1,1.064374493E1
8.480924542E0,-3.129333923E0,1.875090232E0,1.129139442E1,1.186609802E1
8.490933542E0,-2.288357547E0,3.256238968E0,1.287436902E1,1.347549814E1
8.500942542E0,-4.718491801E-1,4.102453864E0,1.282396719E1,1.347244981E1
8.510951542E0,9.779738612E-1,4.714053910E0,1.245348293E1,1.335170304E1
8.520960542E0,1.272113952E0,5.124553592E0,1.117349468E1,1.235824853E1
8.530969542E0,1.234038784E0,4.553984920E0,8.078529518E0,9.355440638E0
8.540978542E0,7.254557137E-1,3.454640842E0,4.896799865E0,6.036512094E0
8.550986542E0,-1.875216312E-1,1.837382123E0,2.825292158E0,3.375413042E0
8.560995542E0,-1.037651421E0,-3.441071793E-2,1.302889456E0,1.665960835E0
8.571004542E0,-1.564988558E0,-1.514167922E0,1.776676476E-2,2.177661439E0
8.581013542E0,-1.430605509E0,-2.509432000E0,-8.549939060E-1,3.012456749E0
8.591022542E0,-2.929236502E-1,-2.953374832E0,-9.142039812E-1,3.105478398E0
8.601031542E0,1.476645462E0,-2.561075778E0,-1.082775700E-1,2.958262158E0
8.611040542E0,3.057858143E0,-1.652526639E0,1.419739628E0,3.754597359E0
8.621048542E0,3.783776226E0,-5.791987239E-1,2.296940090E0,4.464120010E0
8.631057542E0,3.811480041E0,4.819037598E-1,1.740481042E0,4.217687233E0
8.641066542E0,3.330091640E0,1.407201590E0,5.049398160E-1,3.650300106E0
8.651074833E0,2.685216259E0,2.048566303E0,-2.194015646E-1,3.384545361E0
8.661083833E0,1.865764361E0,2.358506301E0,-4.928822726E-1,3.047386020E0
8.671092833E0,6.755514823E-1,2.297206138E0,-8.509640050E-1,2.541193732E0
8.681101833E0,-4.083495145E-1,2.078266942E0,-1.365545880E0,2.520051261E0
8.691109833E0,-1.050715270E0,1.876427636E0,-2.107175723E0,3.010842537E0
8.701118833E0,-1.402349132E0,1.713762482E0,-2.939441501E0,3.680201255E0
8.711127833E0,-1.394299124E0,1.453402049E0,-3.880097702E0,4.371682255E0
8.721136833E0,-1.172248917E0,1.245455326E0,-4.797286686E0,5.093062541E0
8.731145833E0,-6.343531702E-1,1.248864107E0,-5.645375031E0,5.816556089E0
8.741154833E0,-1.571237478E-1,1.388238631E0,-6.306437843E0,6.459338406E0
8.751163833E0,3.490700036E-2,1.506593293E0,-6.776775007E0,6.942313832E0
8.761171833E0,1.215048489E-1,1.590792175E0,-7.137328942E0,7.313470284E0
8.771180833E0,1.381922176E-1,1.670655931E0,-7.339467187E0,7.528477065E0
8.781189833E0,-6.470441133E-2,1.720769054E0,-7.280813767E0,7.481676410E0
8.791198833E0,-4.404823034E-1,1.657837811E0,-7.005055568E0,7.212021518E0
8.801207833E0,-9.012810498E-1,1.507721221E0,-6.634367239E0,6.862970164E0
8.811216833E0,-1.402833866E0,1.319201141E0,-6.202446283E0,6.494503398E0
8.821225833E0,-1.792791402E0,1.142717920E0,-5.688616945E0,6.072912645E0
8.831233833E0,-2.172585454E0,9.648187224E-1,-5.014093841E0,5.549066568E0
8.841242833E0,-2.410497403E0,8.345746981E-1,-4.256317497E0,4.962182110E0
8.851251833E0,-2.510204417E0,7.185308562E-1,-3.648216425E0,4.486300914E0
8.861260833E0,-2.532527625E0,5.896409009E-1,-3.211185586E0,4.131959031E0
8.871269833E0,-2.306997886E0,5.333749354E-1,-3.027884147E0,3.843801565E0
8.881278833E0,-1.874399822E0,6.647801802E-1,-3.030158713E0,3.624523308E0
8.891287833E0,-1.341455936E0,8.408271258E-1,-3.241292900E0,3.607280686E0
8.901296833E0,-7.087234676E-1,9.750262798E-1,-3.179607698E0,3.400422079E0
8.911304833E0,-4.510596241E-1,8.537569275E-1,-2.618823465E0,2.791163201E0
8.921313833E0,-4.161119856E-1,4.826865923E-1,-1.910923870E0,2.014389626E0
8.931322833E0,-5.390641665E-1,9.626442891E-2,-1.225774621E0,1.342527630E0
8.941331833E0,-5.896017976E-1,-3.249688771E-1,-4.184337687E-1,7.926675657E-1
8.951340833E0,-5.064615539E-1,-6.781034996E-1,7.184631747E-1,1.110187820E0
8.961349833E0,-1.887009050E-1,-9.181729981E-1,1.725703958E0,1.963849240E0
8.971358833E0,1.561130565E-1,-1.079602343E0,3.562182832E0,3.725460916E0
8.981366833E0,2.731070709E-1,-8.483722997E-1,7.288396436E0,7.342686541E0
8.991375833E0,-1.340275383E-1,-5.230638456E-1,1.158194491E1,1.159452487E1
9.001384833E0,-4.236765285E-1,-7.251787750E-1,1.411676435E1,1.414172627E1
9.011393833E0,-7.670726864E-1,-1.242674683E0,1.510586532E1,1.517629098E1
9.021402833E0,-1.669762915E0,-1.994480874E0,1.479114712E1,1.501812556E1
9.031411833E0,-1.056786727E0,-1.255441055E0,1.424174742E1,1.433597921E1
9.041420833E0,5.914334379E-1,5.013961110E-1,1.398043886E1,1.400192352E1
9.051428833E0,2.904794995E0,1.410728631E0,1.277073063E1,1.317268196E1
9.061437833E0,4.793165569E0,1.552950895E0,1.179802759E1,1.282885606E1
9.071446833E0,4.926193818E0,1.443103494E0,1.105048797E1,1.218454831E1
9.081455833E0,3.647450147E0,9.359907067E-1,1.068531415E1,1.132942671E1
9.091464833E0,2.063356396E0,-1.168938808E-2,1.090821352E1,1.110165296E1
9.101473833E0,4.807623833E-1,-1.220758003E0,1.148322754E1,1.155793655E1
9.111482833E0,-1.108157075E0,-2.472838663E0,1.209677120E1,1.239656471E1
9.121491833E0,-2.238733689E0,-3.426456093E0,1.147445437E1,1.218259550E1
9.131499833E0,-2.625452453E0,-3.583992654E0,9.395627707E0,1.039306615E1
9.141508833E0,-2.086589138E0,-2.687240273E0,6.585362894E0,7.412295121E0
9.151517833E0,-1.025369783E0,-1.364835297E0,3.376248391E0,3.783280558E0
9.161526833E0,1.432218646E-1,-1.637032724E-1,5.280538595E-1,5.710973143E-1
9.171535833E0,1.079275922E0,6.273321991E-1,-1.944933615E0,2.311092592E0
9.181544833E0,1.615881115E0,1.025059735E0,-3.886645414E0,4.332185570E0
9.191553833E0,1.701499848E0,1.456621818E0,-5.192588285E0,5.655070464E0
9.201561833E0,1.627159225E0,2.104882591E0,-5.784553381E0,6.367042931E0
9.211570833E0,1.081741766E0,1.833874524E0,-6.004914474E0,6.371205448E0
9.221579833E0,1.807246816E-1,1.186593160E0,-5.857279880E0,5.978995930E0
9.231588833E0,-3.864291801E-1,6.654860122E-1,-5.981957136E0,6.031252798E0
9.241597833E0,-5.384819300E-1,3.669214068E-1,-6.631199802E0,6.663137769E0
9.251606833E0,-4.935898222E-1,3.330944968E-1,-7.599795753E0,7.623088504E0
9.261615833E0,-3.886081815E-1,3.198461680E-1,-8.731652981E0,8.746146676E0
9.271623833E0,-2.315040219E-1,1.743914527E-1,-9.622188603E0,9.626552862E0
9.281632833E0,3.693247586E-3,1.174688083E-1,-1.009686674E1,1.009755072E1
9.291641833E0,3.808247335E-1,1.609442454E-1,-1.030654555E1,1.031483455E1
9.301650833E0,6.302940331E-1,1.804940455E-1,-1.047633349E1,1.049682867E1
9.311659833E0,5.344966506E-1,-6.302348301E-3,-1.041045058E1,1.042416460E1
9.321668833E0,5.593161441E-1,-1.868868794E-1,-9.925531626E0,9.943034713E0
9.331677833E0,7.954558021E-1,-2.450655057E-1,-9.369866045E0,9.406763350E0
9.341686833E0,9.535955036E-1,-3.188064234E-1,-9.106533764E0,9.161874214E0
9.351694833E0,8.680734696E-1,-5.126670577E-1,-8.872225893E0,8.929320878E0
9.361703833E0,6.906716511E-1,-6.789875986E-1,-8.579202036E0,8.633699037E0
9.371712833E0,7.813482980E-1,-7.196981066E-1,-8.281534320E0,8.349388075E0
9.381721833E0,9.910595644E-1,-5.680140236E-1,-7.886417493E0,7.968715070E0
9.391730833E0,1.209211944E0,-3.873189801E-1,-7.199477828E0,7.310587562E0
9.401739833E0,1.371641163E0,-3.348627314E-1,-6.507558088E0,6.658967247E0
9.411748833E0,1.594496386E0,-4.562189148E-1,-5.957061446E0,6.183618317E0
9.421756833E0,1.589531661E0,-5.538174225E-1,-5.482806648E0,5.735372122E0
9.431765833E0,1.359901270E0,-5.625923391E-1,-4.912817143E0,5.128509908E0
9.441774833E0,1.095500776E0,-4.711904182E-1,-3.582379700E0,3.775657118E0
9.451783833E0,9.788026310E-1,-4.999943872E-1,-1.594923964E0,1.936964488E0
9.461792833E0,8.034485073E-1,-8.200648324E-1,1.990327889E-1,1.165182340E0
9.471801833E0,4.448139573E-1,-1.228879931E0,1.299391651E0,1.842938959E0
9.481810833E0,-1.694172263E-1,-1.503386826E0,2.010577966E0,2.516207047E0
9.491818833E0,-8.645169007E-1,-1.371217825E0,2.851717479E0,3.280231757E0
9.501827833E0,-1.424741483E0,-1.221973200E0,4.156892611E0,4.561015564E0
9.511836833E0,-1.632741123E0,-1.070849865E0,5.575070449E0,5.907112113E0
9.521845833E0,-1.723513299E0,-7.518509223E-1,6.719660574E0,6.977794503E0
9.531854833E0,-1.753007824E0,3.931375444E-3,7.255226351E0,7.464004374E0
9.541863833E0,-1.443400971E0,6.745583327E-1,7.197648818E0,7.371877903E0
9.551872833E0,-1.195109703E0,1.450873128E0,7.433430773E0,7.667412412E0
9.561881833E0,-4.761450563E-1,2.092972982E0,6.449438519E0,6.797242619E0
9.571889833E0,1.202066282E0,1.781331883E0,4.796853408E0,5.256225760E0
9.581898833E0,2.052089396E0,1.963504810E0,6.212916892E0,6.831307220E0
9.591907833E0,2.249427077E0,1.393715426E0,9.791825100E0,1.014308650E1
9.601916833E0,2.263446362E0,-3.436421064E-1,1.299531984E1,1.319543926E1
9.611925833E0,1.796420623E0,-2.359443171E0,1.461309239E1,1.491095464E1
9.621934833E0,4.036642867E-1,-4.445124967E0,1.448413321E1,1.515625930E1
9.631943833E0,-1.198903888E0,-5.563863675E0,1.258420211E1,1.381144787E1
9.641951833E0,-2.834010648E0,-5.127978306E0,9.821363479E0,1.143621259E1
9.651961333E0,-3.825661878E0,-3.746326856E0,7.086261699E0,8.881765511E0
9.661970333E0,-3.265565569E0,-2.357368140E0,4.392726606E0,5.959626672E0
9.671979333E0,-2.108748478E0,-1.136252069E0,2.396382517E0,3.388294272E0
9.681988333E0,-5.473794188E-1,-7.912488766E-2,1.298088892E0,1.410999556E0
9.691997333E0,3.252669754E-1,5.484732867E-1,6.724087501E-1,9.266903899E-1
9.702006333E0,6.066349195E-1,1.424843371E0,4.874402690E-1,1.623509339E0
9.712014333E0,3.049983150E-1,2.423486116E0,5.650439304E-1,2.507106613E0
9.722023333E0,-8.393558201E-1,2.542866087E0,6.509237409E-1,2.755791691E0
9.732032333E0,-1.454062930E0,2.382001875E0,3.560281903E-1,2.813358849E0
9.742041333E0,-1.285928876E0,2.687945155E0,-6.476738584E-1,3.049285762E0
9.752050333E0,-8.764638586E-1,3.212829823E0,-2.101363006E0,3.937790097E0
9.762059333E0,-1.792319240E-1,3.658968285E0,-3.568396668E0,5.114061769E0
9.772068333E0,6.314238614E-1,3.923375576E0,-4.840538540E0,6.262777767E0
9.782077333E0,1.263847304E0,4.115772652E0,-5.521303546E0,7.001548927E0
9.792085333E0,1.786089178E0,4.112704618E0,-5.553679579E0,7.137773511E0
9.802094333E0,2.095110139E0,3.790198515E0,-5.286972286E0,6.834264206E0
9.812103333E0,1.832098286E0,3.355005457E0,-4.994374107E0,6.289389355E0
9.822112333E0,1.288607631E0,2.771764991E0,-4.710406417E0,5.615257733E0
9.832121333E0,7.466680234E-1,2.256984604E0,-4.443408517E0,5.039382094E0
9.842130333E0,1.141586264E-1,1.875681824E0,-4.341865770E0,4.731068892E0
9.852139333E0,-3.162856522E-1,1.596534579E0,-4.451387628E0,4.739600309E0
9.862147333E0,-6.371459466E-1,1.520575155E0,-4.671706036E0,4.954083270E0
9.872156333E0,-9.913848889E-1,1.331328266E0,-5.009659898E0,5.277496683E0
9.882165333E0,-1.006994908E0,1.122859533E0,-5.540324539E0,5.741955091E0
9.892174333E0,-8.652622014E-1,1.198775834E0,-6.256430701E0,6.428737613E0
9.902183333E0,-4.946688163E-1,1.355713786E0,-6.894697559E0,7.044111835E0
9.912192333E0,-5.583248584E-2,1.315601449E0,-7.160306745E0,7.280378913E0
9.922201333E0,1.830125874E-1,1.106523143E0,-6.919729489E0,7.010031617E0
9.932209333E0,1.555751127E-1,8.193255982E-1,-6.263597633E0,6.318872792E0
9.942218333E0,1.928165591E-1,4.696964546E-1,-5.236652318E0,5.261209032E0
9.952227333E0,1.907466448E-1,1.862301275E-1,-4.002741880E0,4.011609216E0
9.962236333E0,6.066809664E-2,-5.401109643E-2,-2.567296631E0,2.568581283E0
9.972245333E0,1.963487159E-1,-2.689039827E-1,-1.242772477E0,1.286602347E0
9.982254333E0,4.574047302E-1,-4.527336819E-1,-3.459125072E-1,7.306451509E-1
9.992263333E0,2.404168596E-1,-5.670156115E-1,5.987238926E-1,8.589396193E-1
1.000227233E1,-4.004315439E-1,-7.939673202E-1,2.336281911E0,2.499788530E0
1.001228033E1,-1.221305302E0,-1.220005612E0,4.351038882E0,4.680976361E0
1.002228933E1,-2.345725457E0,-1.690749595E0,6.055871789E0,6.710785739E0
1.003229833E1,-2.954679638E0,-1.642962348E0,7.279337345E0,8.026095515E0
1.004230733E1,-3.131414362E0,-1.432775265E0,8.118248484E0,8.818421589E0
1.005231633E1,-2.814802253E0,-1.173580328E0,9.065675175E0,9.564876836E0
1.006232533E1,-1.527395055E0,-8.963155943E-1,1.032161266E1,1.047244027E1
1.007233433E1,-3.206478943E-1,-3.314330471E-1,1.174975649E1,1.175880268E1
1.008234233E1,5.882551108E-1,4.252010438E-1,1.125558841E1,1.127896762E1
1.009235133E1,1.369502252E0,5.289715800E-1,1.059720597E1,1.069841678E1
1.010236033E1,1.606413742E0,-4.542058647E-2,1.188908044E1,1.199720225E1
1.011236933E1,1.220756102E0,-5.866034916E-1,1.340796253E1,1.347619413E1
1.012237833E1,7.043512852E-1,-7.192410006E-1,1.427924210E1,1.431468384E1
1.013238733E1,5.534448087E-2,-9.279958087E-1,1.411497978E1,1.414556091E1
1.014239633E1,-1.203252097E0,-1.489960595E0,1.275927009E1,1.290220025E1
1.015240433E1,-2.291647483E0,-2.200061959E0,1.063236410E1,1.109680527E1
1.016241333E1,-2.821359613E0,-2.341794520E0,8.175759943E0,8.960308158E0
1.017242233E1,-2.301855990E0,-1.603590707E0,5.704088677E0,6.356624245E0
1.018243133E1,-1.164880329E0,-5.759539943E-1,3.605674422E0,3.832695817E0
1.019244033E1,-2.055852518E-1,3.652109501E-1,1.875973307E0,1.922217517E0
1.020244933E1,4.862319784E-1,1.309779376E0,2.103869122E-1,1.412871616E0
1.021245833E1,1.282720070E0,1.866348352E0,-1.808580054E0,2.898204403E0
1.022246733E1,1.655952084E0,2.111688458E0,-3.735711236E0,4.599667802E0
1.023247533E1,1.553622010E0,2.274964792E0,-5.009685625E0,5.717180793E0
1.024248433E1,1.030450356E0,2.467413031E0,-5.797465203E0,6.384399563E0
1.025249333E1,4.202064253E-1,2.604512404E0,-6.224880295E0,6.760857415E0
1.026250233E1,-5.579859939E-2,2.456006283E0,-6.588974719E0,7.032045804E0
1.027251133E1,-3.399071974E-1,2.215986705E0,-7.182764146E0,7.524508938E0
1.028252033E1,-5.088456464E-1,2.168606570E0,-7.891308104E0,8.199665966E0
1.029252933E1,-4.417624781E-1,2.095053860E0,-8.352247038E0,8.622321923E0
1.030253733E1,-2.931628379E-1,1.725272726E0,-8.198561161E0,8.383252086E0
1.031254633E1,-1.222606837E-1,1.298739394E0,-7.745312485E0,7.854396042E0
1.032255533E1,1.123665096E-1,1.045365141E0,-7.250898827E0,7.326728349E0
1.033256433E1,1.357034051E-1,8.597965166E-1,-7.144904594E0,7.197730693E0
1.034257333E1,9.218511891E-2,7.436925946E-1,-7.681566140E0,7.718033113E0
1.035258233E1,1.486401870E-1,7.710460156E-1,-8.236121335E0,8.273469678E0
1.036259133E1,1.579317051E-1,9.420090265E-1,-8.335659072E0,8.390204741E0
1.037259933E1,1.830494614E-2,9.818286382E-1,-7.983612835E0,8.043779985E0
1.038260833E1,-1.520816937E-1,8.863333739E-1,-7.381296414E0,7.435876037E0
1.039261733E1,-1.817280272E-1,8.081685991E-1,-6.768450326E0,6.818950166E0
1.040262633E1,-1.745364636E-1,7.304992296E-1,-6.256431286E0,6.301351009E0
1.041263533E1,-1.608220568E-1,7.187929577E-1,-5.750748873E0,5.797727111E0
1.042264433E1,-8.833884786E-2,6.791786563E-1,-5.091573542E0,5.137432095E0
1.043265333E1,4.831927054E-2,5.314214902E-1,-4.476121350E0,4.507816089E0
1.044266233E1,2.759616816E-1,3.321137360E-1,-4.138090305E0,4.160558346E0
1.045267033E1,3.656157967E-1,1.447214379E-1,-3.851046980E0,3.871069884E0
1.046267933E1,5.313110510E-1,-7.665231943E-2,-3.487232637E0,3.528308161E0
1.047268833E1,7.301156522E-1,-1.388385542E-1,-3.389880005E0,3.470393560E0
1.048269733E1,9.515308517E-1,-1.234749951E-1,-3.261930647E0,3.400124790E0
1.049270633E1,1.110902562E0,2.287174948E-2,-2.815055437E0,3.026411197E0
1.050271533E1,1.430765431E0,1.949334522E-1,-1.890014226E0,2.378495858E0
1.051272433E1,1.713250558E0,2.963178858E-1,-7.963907719E-1,1.912399024E0
1.052273233E1,1.622725281E0,2.044188054E-1,3.406429964E-1,1.670647191E0
1.053274133E1,1.176643246E0,-1.505133243E-1,1.583241811E0,1.978332182E0
1.054275033E1,3.858479668E-1,-6.530736159E-1,3.223573498E0,3.311617414E0
1.055275933E1,-8.458005481E-1,-1.060367854E0,5.228245191E0,5.401324498E0
1.056276833E1,-2.334014361E0,-1.335329954E0,7.116280720E0,7.607376710E0
1.057277733E1,-2.795489776E0,-1.156584080E0,8.571267949E0,9.089504061E0
1.058278633E1,-2.771339314E0,-3.780141596E-1,8.692839164E0,9.131739649E0
1.059279533E1,-2.475309988E0,1.224555477E0,8.512215748E0,8.948995061E0
1.060280333E1,-1.704631763E0,2.159019914E0,9.354567974E0,9.750645026E0
1.061281233E1,-9.236462843E-1,3.232635220E0,1.025091982E1,1.078816065E1
1.062282133E1,1.075477644E-1,4.051726052E0,9.730372033E0,1.054078699E1
1.063283033E1,7.255497077E-1,4.014670785E0,9.390949350E0,1.023884435E1
1.064283933E1,9.695738243E-1,3.930220326E0,8.717026171E0,9.611100378E0
1.065284867E1,1.248128965E0,3.942139583E0,9.021228735E0,9.923752229E0
1.066285767E1,6.850162241E-1,3.099426877E0,1.145457150E1,1.188624846E1
1.067286567E1,-4.794175968E-1,1.173580182E0,1.434591907E1,1.440182369E1
1.068287467E1,-2.003023656E0,-4.502468611E-1,1.535628987E1,1.549291659E1
1.069288367E1,-3.312610220E0,-1.615015289E0,1.386887164E1,1.435016590E1
1.070289267E1,-3.796881883E0,-2.032029354E0,1.049289047E1,1.134223107E1
1.071290167E1,-3.466633189E0,-1.306424682E0,6.298898444E0,7.307558602E0
1.072291067E1,-2.315559964E0,-1.133490794E-1,2.637342766E0,3.511444549E0
1.073291967E1,-1.030108513E0,6.244148040E-1,6.350602448E-1,1.361733788E0
1.074292867E1,2.743952856E-1,9.150320931E-1,-1.221354711E-1,9.630646798E-1
1.075293667E1,1.224981008E0,1.537124529E0,-8.952005303E-1,2.159794962E0
1.076294567E1,1.232954856E0,2.456786594E0,-1.989777666E0,3.393404368E0
1.077295467E1,6.327567342E-1,2.768182695E0,-3.866974795E0,4.797573406E0
1.078296367E1,-3.713470730E-2,2.780760348E0,-5.810237861E0,6.441496029E0
1.079297267E1,-5.947503075E-1,2.742975056E0,-7.255517542E0,7.779471376E0
1.080298167E1,-6.176734029E-1,2.411856443E0,-8.234793432E0,8.602929432E0
1.081299067E1,-5.387729387E-1,2.215632510E0,-8.839057562E0,9.128430439E0
1.082299867E1,-3.326571617E-1,2.192305335E0,-9.020295519E0,9.288842486E0
1.083300767E1,8.478967018E-2,2.048641732E0,-8.496700162E0,8.740596997E0
1.084301667E1,6.654540718E-1,1.665626741E0,-7.841102741E0,8.043633120E0
1.085302567E1,1.208985950E0,1.335928855E0,-7.380825128E0,7.597560957E0
1.086303467E1,1.483363620E0,1.250398124E0,-6.948898324E0,7.214641434E0
1.087304367E1,1.743141232E0,8.012101932E-1,-6.475038214E0,6.753265802E0
1.088305267E1,1.734891981E0,4.322014765E-1,-6.084738323E0,6.341978300E0
1.089306067E1,1.207943537E0,1.025211324E-1,-6.085226566E0,6.204806244E0
1.090306967E1,7.345635561E-1,-2.492030686E-1,-6.218768200E0,6.266958091E0
1.091307867E1,2.433111583E-1,-5.242851828E-1,-6.098040739E0,6.125371509E0
1.092308767E1,-1.610149236E-1,-7.706846577E-1,-5.849827604E0,5.902572629E0
1.093309667E1,-5.060349264E-1,-9.556991856E-1,-5.995633773E0,6.092376927E0
1.094310567E1,-6.186317615E-1,-1.122292791E0,-6.323800566E0,6.452340657E0
1.095311467E1,-3.778664444E-1,-1.118439330E0,-6.698738067E0,6.801968926E0
1.096312367E1,1.506902391E-1,-9.490586489E-1,-6.599450006E0,6.669044928E0
1.097313167E1,5.227839833E-1,-9.292351261E-1,-6.363513100E0,6.452215123E0
1.098314067E1,6.390344511E-1,-1.028691587E0,-6.290340459E0,6.405853144E0
1.099314967E1,6.272816207E-1,-1.241181158E0,-5.952201825E0,6.112505171E0
1.100315867E1,6.256183802E-1,-1.571390529E0,-5.236923628E0,5.503274992E0
1.101316767E1,5.199751636E-1,-1.828718596E0,-3.979351264E0,4.410195274E0
1.102317667E1,1.736338545E-1,-1.982938324E0,-2.266195430E0,3.016261733E0
1.103318567E1,-1.876226784E-1,-2.015522664E0,1.180699021E-1,2.027677090E0
1.104319367E1,4.994477822E-2,-2.017524020E0,2.621976868E0,3.308724882E0
1.105320267E1,5.345895482E-1,-1.774332035E0,4.416585585E0,4.789600023E0
1.106321167E1,8.250840823E-1,-1.194575633E0,5.156058390E0,5.356557925E0
1.107322067E1,7.749227927E-1,-6.033291596E-1,5.672619547E0,5.757006508E0
1.108322967E1,-2.433472283E-2,2.037702030E-1,6.333206397E0,6.336530418E0
1.109323867E1,-1.354409273E0,1.051631091E0,6.133002995E0,6.368208395E0
1.110324767E1,-2.509778740E0,1.912271360E0,5.834534211E0,6.633065697E0
1.111325567E1,-3.058543437E0,3.327504247E0,7.718755601E0,8.944616286E0
1.112326467E1,-2.098128180E0,4.288401462E0,1.069259393E1,1.170999974E1
1.113327367E1,-1.436022224E0,4.518867420E0,1.377997759E1,1.457292370E1
1.114328267E1,-1.202206688E0,4.681218871E0,1.317666305E1,1.403508319E1
1.115329167E1,-8.845521659E-1,4.398046695E0,9.536121097E0,1.053863619E1
1.116330067E1,-3.113846987E-1,4.170254376E0,8.031045449E0,9.054594027E0
1.117330967E1,1.120416712E0,4.246393310E0,9.033264644E0,1.004425507E1
1.118331867E1,1.972999373E0,3.701402406E0,1.160955780E1,1.234402441E1
1.119332667E1,9.440551865E-1,1.713825047E0,1.502617946E1,1.515303619E1
1.120333567E1,-1.455273889E0,-1.112446080E0,1.676906605E1,1.686881544E1
1.121334467E1,-3.922765127E0,-2.925166694E0,1.419193148E1,1.501184884E1
1.122335367E1,-4.836638155E0,-2.963746623E0,9.820517972E0,1.134105092E1
1.123336267E1,-4.322810571E0,-2.245931612E0,6.754892387E0,8.328233378E0
1.124337167E1,-2.883895292E0,-1.816708415E0,4.170972707E0,5.386491886E0
1.125338067E1,-1.083423791E0,-9.074603873E-1,1.371177333E0,1.969116234E0
1.126338867E1,6.208585274E-1,3.116529398E-1,-1.166396731E0,1.357598689E0
1.127339767E1,2.076093532E0,1.256720864E0,-3.205592140E0,4.020613467E0
1.128340667E1,2.564042071E0,1.785560882E0,-4.529844398E0,5.502911018E0
1.129341567E1,2.377160527E0,1.898008978E0,-5.483269747E0,6.270532463E0
1.130342467E1,1.805123911E0,1.513926432E0,-6.456740522E0,6.873132018E0
1.131343367E1,1.145662651E0,8.929380964E-1,-7.246833842E0,7.390973014E0
1.132344267E1,5.694229833E-1,6.013649337E-1,-7.884002593E0,7.927381611E0
1.133345167E1,8.273811975E-2,5.249595129E-1,-8.237610036E0,8.254734835E0
1.134345967E1,-7.382606775E-2,2.745239975E-1,-8.436062196E0,8.440850615E0
1.135346867E1,1.826718044E-1,1.499114996E-1,-8.440007313E0,8.443314864E0
1.136347767E1,4.939685391E-1,1.799770054E-1,-8.204856273E0,8.221682498E0
1.137348667E1,4.828578792E-1,9.134798035E-2,-8.068433130E0,8.083384772E0
1.138349567E1,3.906699463E-1,-2.250878356E-1,-7.887588691E0,7.900464726E0
1.139350467E1,1.018113900E-1,-5.950183658E-1,-7.649804065E0,7.673585514E0
1.140351367E1,-3.712835759E-1,-8.539007691E-1,-7.415190969E0,7.473423253E0
1.141352167E1,-7.947366676E-1,-1.088674371E0,-7.391881628E0,7.513769511E0
1.142353067E1,-1.294565798E0,-1.264599110E0,-7.366778947E0,7.585811991E0
1.143353967E1,-1.688204741E0,-1.345571499E0,-7.206212066E0,7.522638516E0
1.144354867E1,-1.704890063E0,-1.221500745E0,-6.802073570E0,7.118069896E0
1.145355767E1,-1.598285820E0,-1.204438131E0,-6.033209735E0,6.356477679E0
1.146356667E1,-1.543422711E0,-1.278554806E0,-5.365391049E0,5.727501826E0
1.147357567E1,-1.598203228E0,-1.344938976E0,-5.680034986E0,6.051934554E0
1.148358367E1,-1.378087280E0,-1.334058477E0,-5.999405227E0,6.298547424E0
1.149359267E1,-1.142972420E0,-1.148042175E0,-5.975891819E0,6.191580559E0
1.150360167E1,-9.323164625E-1,-1.005642447E0,-5.950244177E0,6.106221130E0
1.151361067E1,-7.532270645E-1,-1.022181004E0,-5.509439546E0,5.653859666E0
1.152361967E1,-6.857773854E-1,-1.054596506E0,-4.714686579E0,4.879624366E0
1.153362867E1,-3.065938557E-1,-9.484666184E-1,-3.457938672E0,3.598739859E0
1.154363767E1,2.049001043E-1,-9.855223243E-1,-2.086794083E0,2.316883219E0
1.155364667E1,-7.293312483E-2,-1.090765482E0,-7.943571103E-1,1.351329640E0
1.156365467E1,6.953183603E-2,-8.620666981E-1,8.144311863E-1,1.187978041E0
1.157366367E1,6.048371565E-1,-3.828622323E-1,3.197188522E0,3.276343376E0
1.158367267E1,8.046628278E-1,-3.593143255E-1,5.510128933E0,5.580153215E0
1.159368167E1,7.408850540E-1,-9.591260925E-1,6.105446237E0,6.224572859E0
1.160369067E1,-2.299484433E-1,-1.632963902E0,6.005917856E0,6.228201722E0
1.161369967E1,-1.599900967E0,-1.964668552E0,6.367048911E0,6.852657694E0
1.162370867E1,-2.308473723E0,-1.712597717E0,6.213429108E0,6.846075017E0
1.163371667E1,-2.743866756E0,-8.065096709E-1,5.620890985E0,6.306637621E0
1.164372567E1,-2.560399840E0,3.487899220E-1,4.860663487E0,5.504847980E0
1.165373454E1,-2.451792779E0,1.780315783E0,4.930630100E0,5.787220862E0
1.166374354E1,-2.002436011E0,3.083248216E0,5.787170010E0,6.856202029E0
1.167375254E1,-1.427039292E0,4.600426723E0,6.428682073E0,8.032952158E0
1.168376154E1,-6.673217455E-1,6.673514348E0,6.624657353E0,9.426939965E0
1.169377054E1,6.750424091E-1,7.280458256E0,8.232358067E0,1.101056193E1
1.170377954E1,2.191300199E0,6.274653549E0,1.050989534E1,1.243507032E1
1.171378754E1,3.767853965E0,5.821947495E0,1.112799515E1,1.311198201E1
1.172379654E1,4.700618763E0,5.134183956E0,1.284503705E1,1.460994998E1
1.173380554E1,3.059498580E0,2.050969362E0,1.739849542E1,1.778411229E1
1.174381454E1,5.759188379E-1,-1.972943678E0,1.957693877E1,1.968452998E1
1.175382354E1,-1.456010492E0,-3.992697533E0,1.604932058E1,1.660247846E1
1.176383254E1,-2.281632518E0,-3.500869514E0,1.063685477E1,1.142823755E1
1.177384154E1,-2.056984539E0,-2.598773070E0,7.458957962E0,8.162160299E0
1.178384954E1,-1.381328684E0,-2.291129420E0,5.262119865E0,5.903155802E0
1.179385854E1,-8.729583798E-1,-1.935189961E0,3.280037720E0,3.907129888E0
1.180386754E1,-3.019501432E-1,-1.348749460E0,7.331636596E-1,1.564553594E0
1.181387654E1,2.433807036E-1,-7.686107965E-1,-2.356582859E0,2.490678521E0
1.182388554E1,1.276949745E0,2.332774459E-1,-5.360825543E0,5.515747413E0
1.183389454E1,2.042722157E0,1.992689871E0,-8.083559877E0,8.572483131E0
1.184390354E1,1.815265030E0,2.379262455E0,-9.639613305E0,1.009347421E1
1.185391254E1,1.655727259E0,1.979757146E0,-9.705511426E0,1.004279957E1
1.186392054E1,2.121388111E0,2.420185217E0,-1.136159025E1,1.180861198E1
1.187392954E1,6.934974642E-1,2.519151827E0,-1.055019669E1,1.086893347E1
1.188393854E1,-7.921130220E-1,1.450679001E0,-9.842609922E0,9.980424975E0
1.189394754E1,-1.678258773E0,6.014965691E-1,-8.509797925E0,8.694539169E0
1.190395654E1,-2.432708052E0,3.109900117E-2,-7.594698150E0,7.974865241E0
1.191396554E1,-2.837940854E0,-3.992617719E-1,-7.531795558E0,8.058614185E0
1.192397454E1,-2.678819405E0,-1.904239333E-1,-7.321763572E0,7.798753521E0
1.193398254E1,-1.821154199E0,3.176390999E-1,-7.109807852E0,7.346214325E0
1.194399154E1,-7.759285869E-1,4.059055245E-1,-7.352193652E0,7.404159369E0
1.195400054E1,9.733841624E-2,5.719474456E-1,-7.412833956E0,7.435503070E0
1.196400954E1,6.129389855E-1,5.455121836E-1,-7.332378607E0,7.378147043E0
1.197401854E1,4.276819443E-1,4.022067221E-1,-7.180330535E0,7.204292379E0
1.198402754E1,-1.675952705E-1,-1.522804990E-2,-7.380305310E0,7.382223686E0
1.199403654E1,-1.026698563E0,-5.311210164E-1,-7.591739459E0,7.679238731E0
1.200404554E1,-1.383456486E0,-6.715514021E-1,-7.502664730E0,7.658649436E0
1.201405354E1,-1.302194222E0,-7.061349052E-1,-7.149049686E0,7.300907320E0
1.202406254E1,-8.369875516E-1,-8.716913612E-1,-6.389053738E0,6.502338169E0
1.203407154E1,-5.797434286E-1,-1.110693816E0,-5.624649575E0,5.762501717E0
1.204408054E1,-3.471564292E-1,-1.113683643E0,-5.263844794E0,5.391555514E0
1.205408954E1,3.589721172E-1,-9.447992447E-1,-4.914322801E0,5.017178010E0
1.206409854E1,9.254189408E-1,-7.804019992E-1,-4.618393462E0,4.774409458E0
1.207410754E1,1.309466988E0,-4.350671969E-1,-3.746439707E0,3.992467625E0
1.208411554E1,1.555300891E0,-3.030458383E-1,-2.595777833E0,3.041193878E0
1.209412454E1,1.394320028E0,-1.891359378E-1,-1.279207063E0,1.901649666E0
1.210413354E1,9.468758833E-1,-2.875092016E-1,7.982449239E-1,1.271389176E0
1.211414254E1,6.922726918E-1,-3.027318428E-1,3.254667236E0,3.341219368E0
1.212415154E1,7.971420660E-1,-2.260318686E-1,4.726927725E0,4.798996937E0
1.213416054E1,1.216142064E0,-3.978751047E-1,6.405844018E0,6.532391882E0
1.214416954E1,8.680212101E-1,-5.485122438E-1,9.785206051E0,9.838932054E0
1.215417754E1,-7.349023291E-1,-6.460772762E-1,1.147680729E1,1.151844620E1
1.216418654E1,-2.223471141E0,-4.358570096E-1,1.142888702E1,1.165131983E1
1.217419554E1,-2.737476042E0,6.516373935E-1,1.202771324E1,1.235250145E1
1.218420454E1,-1.939605339E0,2.191422113E0,1.256641956E1,1.290268578E1
1.219421354E1,-5.079422151E-1,3.091726971E0,1.305792481E1,1.342855842E1
1.220422254E1,2.540117091E-1,4.705754372E0,1.294897832E1,1.377986523E1
1.221423154E1,2.244072015E-1,5.771690676E0,1.080601822E1,1.225286912E1
1.222424054E1,-2.010239668E-1,5.012713314E0,1.047261817E1,1.161221068E1
1.223424854E1,-1.434828368E0,3.478509761E0,1.087183331E1,1.150458701E1
1.224425754E1,-2.382058154E0,2.401451615E0,1.009643171E1,1.064796244E1
1.225426654E1,-1.972652925E0,1.652137215E0,8.860142037E0,9.226214492E0
1.226427554E1,-7.784123379E-1,5.448230892E-1,8.589753336E0,8.642142116E0
1.227428454E1,9.374380387E-1,-1.231338539E0,9.582041035E0,9.706209099E0
1.228429354E1,2.727758846E0,-2.064496896E0,1.000247397E1,1.057129610E1
1.229430254E1,4.368579944E0,-1.935878032E0,9.294518239E0,1.045084608E1
1.230431154E1,3.569040155E0,-1.884411278E0,9.163376302E0,1.001281772E1
1.231431954E1,7.780308802E-1,-2.628943825E0,9.876361220E0,1.024983847E1
1.232432854E1,-8.883660123E-1,-3.053038576E0,8.425443068E0,9.005461099E0
1.233433754E1,-9.871161291E-1,-2.115370011E0,4.736495524E0,5.280490355E0
1.234434654E1,-1.978542095E-1,-9.061730497E-1,2.628148019E-2,9.278936364E-1
1.235435554E1,1.141096852E0,3.741842334E-1,-5.474107161E0,5.604280959E0
1.236436454E1,1.994672662E0,1.352505565E0,-9.337936739E0,9.643912737E0
1.237437354E1,1.992700396E0,1.951413207E0,-1.064853282E1,1.100773000E1
1.238438154E1,1.193605068E0,2.010196435E0,-1.026651435E1,1.052933519E1
1.239439054E1,-3.100596466E-1,1.598613557E0,-8.967179412E0,9.113836124E0
1.240439954E1,-1.443148956E0,1.002156849E0,-7.491570223E0,7.694843836E0
1.241440854E1,-1.693034395E0,4.109923097E-1,-6.595751057E0,6.821965417E0
1.242441754E1,-1.548250026E0,2.342445023E-1,-6.095270913E0,6.293192841E0
1.243442654E1,-1.225542633E0,2.886334750E-1,-6.064924448E0,6.194237047E0
1.244443554E1,-9.361798641E-1,2.518149468E-1,-6.382832885E0,6.456035869E0
1.245444354E1,-4.410377888E-1,2.527537172E-1,-6.940754322E0,6.959344031E0
1.246445254E1,-1.410514330E-1,5.860971227E-1,-7.068456928E0,7.094116483E0
1.247446154E1,-2.083658221E-1,5.996535999E-1,-6.918691024E0,6.947754043E0
1.248447054E1,-4.745637500E-1,2.719168702E-1,-7.054425949E0,7.075597148E0
1.249447954E1,-6.365750391E-1,1.043958959E-1,-7.215210346E0,7.243989689E0
1.250448854E1,-5.567644923E-1,3.547681153E-2,-7.311874176E0,7.333126842E0
1.251449754E1,-5.563182767E-1,2.635252386E-2,-7.680082117E0,7.700249723E0
1.252450654E1,-7.081904208E-1,-1.187205510E-1,-7.840785822E0,7.873598323E0
1.253451454E1,-1.040866732E0,-4.760823449E-1,-7.769711747E0,7.853564705E0
1.254452354E1,-1.302206939E0,-7.970032677E-1,-7.755804144E0,7.904647686E0
1.255453254E1,-1.051885371E0,-8.389563091E-1,-7.600983907E0,7.719149362E0
1.256454154E1,-6.859263432E-1,-9.268070698E-1,-7.127148939E0,7.219814284E0
1.257455054E1,-3.392165682E-1,-1.132626137E0,-6.664795564E0,6.768855868E0
1.258455954E1,-1.208626784E-2,-1.116953845E0,-6.217324523E0,6.316870759E0
1.259456854E1,2.317785852E-1,-1.094371898E0,-5.602383962E0,5.712974464E0
1.260457754E1,6.890178027E-2,-1.157572698E0,-4.937575423E0,5.071920057E0
1.261458554E1,-1.759647191E-1,-1.226409629E0,-3.993381073E0,4.181164497E0
1.262459454E1,-1.708083337E-1,-1.069337337E0,-2.866816744E0,3.064522160E0
1.263460354E1,1.860322723E-1,-8.075330798E-1,-1.588891976E0,1.792008759E0
1.264461254E1,1.093480490E0,-4.968842532E-1,-5.440652901E-1,1.318560042E0
1.265462108E1,2.065790007E0,-3.607499631E-1,5.956967890E-1,2.180019164E0
1.266463008E1,2.299699391E0,-3.400815175E-1,2.211929761E0,3.208879243E0
1.267463908E1,1.064043633E0,-8.955107251E-1,3.741214051E0,3.991341990E0
1.268464708E1,-1.145874905E0,-1.875630514E0,5.858835824E0,6.257553543E0
1.269465608E1,-3.383818781E0,-2.533087496E0,8.701605309E0,9.673918377E0
1.270466508E1,-4.684702642E0,-2.356737079E0,1.218751180E1,1.326785937E1
1.271467408E1,-4.381130993E0,-1.751525555E0,1.581175639E1,1.650072092E1
1.272468308E1,-3.300426961E0,-5.117718489E-1,1.720282771E1,1.752404091E1
1.273469208E1,-1.825715612E0,1.758430970E0,1.481097503E1,1.502632018E1
1.274470108E1,-4.787036152E-1,4.437919151E0,1.004522647E1,1.099230905E1
1.275471008E1,9.110557672E-1,7.504215412E0,4.468297191E0,8.781170272E0
1.276471808E1,2.570519324E0,9.583351981E0,-1.870496221E0,1.009687877E1
1.277472708E1,3.993702670E0,1.001146815E1,-5.548696582E0,1.212300249E1
1.278473608E1,5.721426841E0,9.266169768E0,-4.745838205E0,1.187937741E1
1.279474508E1,5.612521865E0,6.629843248E0,-1.074294899E0,8.752675746E0
1.280475408E1,3.734721302E0,1.979709784E0,4.806558616E0,6.400812430E0
1.281476308E1,6.381339799E-1,-2.952269416E0,1.033726449E1,1.076950076E1
1.282477208E1,-2.357625272E0,-6.559622281E0,1.287081157E1,1.463710463E1
1.283478008E1,-4.319039117E0,-8.181091434E0,1.468637203E1,1.735724285E1
1.284478908E1,-4.954294952E0,-7.666827064E0,1.609366118E1,1.850219463E1
1.285479808E1,-3.233749407E0,-6.021418240E0,1.387358684E1,1.546580178E1
1.286480708E1,-2.883347554E-1,-4.012369029E0,8.812911152E0,9.687602651E0
1.287481608E1,2.186931744E0,-1.565622981E0,3.741228669E0,4.607671616E0
1.288482508E1,3.199297320E0,5.457757469E-1,2.326548636E-2,3.245599450E0
1.289483408E1,2.883071711E0,1.584225313E0,-1.833018492E0,3.765876940E0
1.290484308E1,1.882124140E0,1.661096026E0,-2.258596973E0,3.376816781E0
1.291485108E1,9.445714957E-1,1.376191759E0,-1.669681785E0,2.360922771E0
1.292486008E1,-5.484454393E-2,1.186545505E0,-1.220663570E0,1.703208065E0
1.293486908E1,-1.112296538E0,9.287758273E-1,-1.568840119E0,2.135670257E0
1.294487808E1,-1.368387626E0,7.734559456E-1,-3.001215581E0,3.387921746E0
1.295488708E1,-4.355219641E-1,9.556239027E-1,-5.041088682E0,5.149317578E0
1.296489608E1,8.846799275E-1,1.631696372E0,-6.922624446E0,7.167134772E0
1.297490508E1,1.331772508E0,2.177487468E0,-8.020378958E0,8.416742144E0
1.298491308E1,1.346487465E0,1.915273906E0,-7.828417207E0,8.171010867E0
1.299492208E1,1.368471680E0,1.169633311E0,-6.963929177E0,7.192848282E0
1.300493108E1,9.052725054E-1,5.940850771E-1,-6.333416896E0,6.425311274E0
1.301494008E1,-5.068783142E-2,-6.558799870E-2,-6.043917156E0,6.044485556E0
1.302494908E1,-1.004884502E0,-7.276304394E-1,-6.078951334E0,6.204263714E0
1.303495808E1,-1.636669575E0,-1.146944653E0,-6.021027061E0,6.344047305E0
1.304496708E1,-1.899178275E0,-1.317986966E0,-5.812289649E0,6.255132191E0
1.305497608E1,-1.598607125E0,-1.247754597E0,-5.898375866E0,6.237248923E0
1.306498408E1,-9.120664584E-1,-1.165274139E0,-6.219681535E0,6.393290815E0
1.307499308E1,-3.257294536E-1,-9.511100715E-1,-6.391997811E0,6.470575404E0
1.308500208E1,1.071847254E-1,-9.583973832E-1,-6.363611333E0,6.436269363E0
1.309501108E1,-8.608018722E-2,-1.267585722E0,-6.172348909E0,6.301751695E0
1.310502008E1,-5.293589580E-1,-1.669044000E0,-5.629553050E0,5.895574300E0
1.311502908E1,-9.923177391E-1,-2.053407066E0,-4.484497486E0,5.031092603E0
1.312503808E1,-1.072915102E0,-2.342521475E0,-3.676173717E0,4.489187774E0
1.313504608E1,-7.618253951E-1,-2.438860492E0,-4.161819475E0,4.883560154E0
1.314505508E1,-1.242353707E-1,-1.939651971E0,-5.122521100E0,5.478859974E0
1.315506408E1,3.942152228E-1,-1.540724514E0,-5.747919990E0,5.963876414E0
1.316507308E1,9.063122135E-1,-1.361327406E0,-5.272900377E0,5.520696742E0
1.317508208E1,9.132043266E-1,-1.213617383E0,-2.862499160E0,3.240480016E0
1.318509108E1,7.614364091E-1,-1.511822165E0,-7.179913044E-2,1.694268804E0
1.319510008E1,5.883676331E-1,-1.711423596E0,2.256576176E0,2.892625664E0
1.320510908E1,1.437223224E-2,-1.453832112E0,3.351640384E0,3.653399463E0
1.321511708E1,-9.593355690E-1,-9.649430488E-1,2.943773119E0,3.243029447E0
1.322512608E1,-1.815377588E0,5.284362674E-2,3.031154494E0,3.533593894E0
1.323513508E1,-2.841842701E0,9.004975230E-1,4.962258275E0,5.788866289E0
1.324514408E1,-4.101230334E0,1.520542118E0,7.518578512E0,8.698342453E0
1.325515308E1,-3.982822756E0,1.698844188E0,1.009324848E1,1.098283268E1
1.326516208E1,-2.055463386E0,2.300564487E0,1.324759796E1,1.360207258E1
1.327517108E1,8.736818265E-2,2.876355307E0,1.373570364E1,1.403390921E1
1.328518008E1,6.343111434E-1,4.067785430E0,1.075178062E1,1.151303676E1
1.329518808E1,9.141585191E-1,5.966404712E0,6.437068149E0,8.824370648E0
1.330519708E1,1.100549774E0,6.876202816E0,4.803326860E0,8.459629064E0
1.331520608E1,1.305883230E0,6.779887480E0,5.201885358E0,8.644756591E0
1.332521508E1,1.607245363E0,6.465123675E0,6.100369685E0,9.033026740E0
1.333522408E1,1.755078031E0,5.293824638E0,7.290755203E0,9.179324029E0
1.334523308E1,1.488390910E0,3.135509460E0,1.038269969E1,1.094747368E1
1.335524208E1,3.327040125E-1,1.069759067E0,1.326136582E1,1.330860247E1
1.336525008E1,-9.149338599E-1,-8.878960423E-1,1.159545198E1,1.166533197E1
1.337525908E1,-1.093131996E0,-1.578375759E0,7.593108877E0,7.832082099E0
1.338526808E1,-3.667303491E-1,-1.536972355E0,4.116905842E0,4.409726623E0
1.339527708E1,5.341377412E-1,-1.571418449E0,2.083453569E0,2.663726308E0
1.340528608E1,1.485812288E0,-1.116014928E0,8.446794176E-1,2.041227766E0
1.341529508E1,1.885288799E0,-3.422886953E-1,-2.107254660E-1,1.927661959E0
1.342530408E1,1.594606460E0,4.145914172E-1,-1.422455660E0,2.176702991E0
1.343531308E1,1.056823345E0,8.076228346E-1,-2.979897802E0,3.263268474E0
1.344532108E1,4.752948712E-1,9.390333053E-1,-4.637778152E0,4.755699207E0
1.345533008E1,1.214492273E-1,1.101760440E0,-5.971026936E0,6.073037843E0
1.346533908E1,-3.898477547E-2,1.302196999E0,-6.873644074E0,6.996014558E0
1.347534808E1,-3.339303198E-1,1.217911724E0,-7.341426589E0,7.449252499E0
1.348535708E1,-8.884086239E-1,4.553815936E-1,-7.120952060E0,7.190591111E0
1.349536608E1,-1.243643128E0,-9.881005079E-2,-6.786149263E0,6.899871990E0
1.350537508E1,-8.848637494E-1,1.816836615E-1,-6.407042112E0,6.470408135E0
1.351538308E1,-1.138194879E-1,4.014518465E-1,-5.855747910E0,5.870596396E0
1.352539208E1,4.054379665E-1,3.624028248E-1,-5.303543295E0,5.331349476E0
1.353540108E1,3.049062762E-1,3.223482281E-1,-5.054656561E0,5.074093926E0
1.354541008E1,-1.810349129E-1,-1.349933521E-1,-5.421766394E0,5.426467330E0
1.355541908E1,-5.577610771E-1,-5.031201625E-1,-5.843890341E0,5.891967552E0
1.356542808E1,-7.422957679E-1,-6.539828579E-1,-6.246547152E0,6.324400992E0
1.357543708E1,-7.569609502E-1,-8.642414238E-1,-6.624042225E0,6.722933774E0
1.358544608E1,-7.902863518E-1,-1.013684123E0,-6.980880840E0,7.098225505E0
1.359545408E1,-9.200234225E-1,-1.093169126E0,-7.199683650E0,7.340088997E0
1.360546308E1,-1.002902150E0,-1.239919767E0,-7.186237392E0,7.361061174E0
1.361547208E1,-1.011658428E0,-1.355572284E0,-6.931152025E0,7.134556565E0
1.362548108E1,-9.127567953E-1,-1.308767223E0,-6.436386364E0,6.631219046E0
1.363549008E1,-9.098662242E-1,-1.361430463E0,-6.172544206E0,6.386051318E0
1.364549908E1,-6.571795307E-1,-1.432223434E0,-5.841483042E0,6.050295285E0
1.365550829E1,-2.915328900E-1,-1.408354953E0,-5.256828720E0,5.450018651E0
1.366551629E1,-1.584339626E-1,-1.425853769E0,-5.022055995E0,5.222950001E0
1.367552529E1,-6.200387478E-2,-1.382932575E0,-4.877431548E0,5.070077464E0
1.368553429E1,-5.413973518E-3,-1.300024612E0,-4.960472535E0,5.127999715E0
1.369554329E1,2.771785968E-1,-1.117112597E0,-5.116944026E0,5.244795963E0
1.370555229E1,8.080430301E-1,-9.558919975E-1,-4.840015799E0,4.999241541E0
1.371556129E1,1.240288872E0,-7.212015720E-1,-3.970597982E0,4.221859369E0
1.372557029E1,1.531921384E0,-3.226288944E-1,-2.488197252E0,2.939727554E0
1.373557929E1,1.713580341E0,-9.954943120E-2,4.941417629E-1,1.786181334E0
1.374558729E1,1.822825918E0,1.474618086E-1,3.626040859E0,4.061109654E0
1.375559629E1,1.610518342E0,-2.989823158E-1,6.474610782E0,6.678603487E0
1.376560529E1,7.550723726E-1,-6.182030144E-1,8.617375583E0,8.672454739E0
1.377561429E1,-1.192976712E-1,-4.664149971E-1,9.002952678E0,9.015815648E0
1.378562329E1,-3.723194467E-1,2.379055171E-1,8.398046524E0,8.409661481E0
1.379563229E1,-8.264046760E-1,1.245944738E0,7.610199704E0,7.755672924E0
1.380564129E1,-1.589475528E0,2.287641263E0,7.943585721E0,8.417855374E0
1.381565029E1,-2.098434866E0,3.353363559E0,9.911718163E0,1.067195544E1
1.382565829E1,-2.361994750E0,4.945252817E0,1.182876524E1,1.303664956E1
1.383566729E1,-2.058039231E0,6.851963183E0,1.179766273E1,1.379745523E1
1.384567629E1,-5.555343112E-1,7.103146119E0,1.089942749E1,1.302155224E1
1.385568529E1,1.718245542E0,7.122584603E0,9.631750554E0,1.210182622E1
1.386569429E1,3.526729410E0,6.822503157E0,6.543244815E0,1.008952042E1
1.387570329E1,3.960995100E0,5.390071562E0,3.990510675E0,7.788872131E0
1.388571229E1,3.350552802E0,3.021606576E0,6.087964817E0,7.577573885E0
1.389572029E1,1.657543989E0,3.649775000E-1,1.084834739E1,1.098031428E1
1.390572929E1,-9.820811648E-1,-2.045773234E0,1.439061285E1,1.456843882E1
1.391573829E1,-2.930655475E0,-3.709249369E0,1.457170813E1,1.531933257E1
1.392574729E1,-3.370559928E0,-4.350484274E0,1.034270941E1,1.171575971E1
1.393575629E1,-2.549732180E0,-3.823730543E0,4.959401325E0,6.761487333E0
1.394576529E1,-7.902558732E-1,-2.471873287E0,8.108860195E-1,2.718859693E0
1.395577429E1,1.451252320E0,-1.066266745E0,-1.770000125E0,2.525066041E0
1.396578329E1,2.976680664E0,7.047970623E-2,-2.112252860E0,3.650644780E0
1.397579129E1,2.350410246E0,5.536748236E-1,-1.363796393E0,2.773251654E0
1.398580029E1,7.870980844E-2,-1.311391599E-2,-1.902985690E0,1.904657907E0
1.399580929E1,-2.306146239E0,-4.321756757E-1,-3.356652617E0,4.095388026E0
1.400581829E1,-3.578705894E0,-2.545578025E-2,-4.672048098E0,5.885220243E0
1.401582729E1,-3.469045458E0,6.066123712E-1,-5.270347483E0,6.338676324E0
1.402583629E1,-2.473064657E0,1.071584202E0,-5.274359842E0,5.923108411E0
1.403584529E1,-1.870129308E0,1.282720070E0,-5.437511777E0,5.891458964E0
1.404585329E1,-1.490113062E0,1.238896358E0,-5.634596858E0,5.958521870E0
1.405586229E1,-1.085885980E0,1.305791283E0,-5.676119691E0,5.924742524E0
1.406587129E1,-9.159042053E-1,1.238103476E0,-5.812070378E0,6.012648569E0
1.407588029E1,-9.681752434E-1,1.041749735E0,-6.107605614E0,6.271000889E0
1.408588929E1,-9.558484358E-1,8.012147979E-1,-6.059408185E0,6.186438308E0
1.409589829E1,-9.974304713E-1,5.623337460E-1,-5.555947714E0,5.672710269E0
1.410590729E1,-1.058976217E0,1.851607083E-1,-5.297613634E0,5.405592042E0
1.411591629E1,-1.144118109E0,-1.004330917E-1,-5.525771404E0,5.643867704E0
1.412592429E1,-1.169383343E0,-1.963266975E-1,-6.096853169E0,6.211088483E0
1.413593329E1,-1.211028236E0,-2.691238014E-1,-6.519621479E0,6.636601633E0
1.414594229E1,-1.174426712E0,-3.757440513E-1,-6.503918781E0,6.619775012E0
1.415595129E1,-1.313139625E0,-7.285733760E-1,-6.266240575E0,6.443673314E0
1.416596029E1,-1.426382650E0,-9.608441506E-1,-5.687308922E0,5.941655638E0
1.417596929E1,-1.644377375E0,-1.117739565E0,-5.411077684E0,5.764813994E0
1.418597829E1,-2.075242762E0,-1.462282215E0,-5.556604941E0,6.109071965E0
1.419598629E1,-2.202989660E0,-1.672177961E0,-5.751722435E0,6.382135500E0
1.420599529E1,-1.760978164E0,-1.730998904E0,-5.675771781E0,6.189651574E0
1.421600429E1,-1.167215561E0,-1.729102799E0,-5.425135560E0,5.812425010E0
1.422601329E1,-8.443823060E-1,-1.715819825E0,-5.103626407E0,5.450139600E0
1.423602229E1,-5.856354851E-1,-1.787729468E0,-4.392703217E0,4.778575847E0
1.424603129E1,2.036219761E-2,-1.781001515E0,-3.086163930E0,3.563255368E0
1.425604029E1,6.787072977E-1,-1.450645525E0,-1.320581961E0,2.075801713E0
1.426604929E1,1.247905163E0,-1.102094316E0,4.822116888E-1,1.733322616E0
1.427605729E1,1.546410785E0,-9.674810328E-1,2.252644508E0,2.898588129E0
1.428606629E1,1.472100860E0,-9.798161727E-1,4.256855441E0,4.609548667E0
1.429607529E1,6.164234143E-1,-1.027613799E0,5.981836098E0,6.100682835E0
1.430608429E1,-1.765968397E-1,-1.062135760E0,7.001357204E0,7.083665825E0
1.431609329E1,-7.743171673E-1,-1.088762226E0,7.905164251E0,8.017268369E0
1.432610229E1,-1.588834235E0,-7.005315185E-1,8.957390589E0,9.124142962E0
1.433611129E1,-1.841883456E0,-3.644837026E-1,9.853643618E0,1.003093593E1
1.434612029E1,-9.952989420E-1,3.413589880E-1,1.027403737E1,1.032777759E1
1.435612829E1,-6.672846157E-2,1.817699079E0,9.645679207E0,9.815681840E0
1.436613729E1,-3.762323669E-1,3.434756801E0,8.379024947E0,9.063507275E0
1.437614629E1,-2.952780133E-1,5.255803703E0,5.174904551E0,7.381754451E0
1.438615529E1,5.057556853E-1,6.522111223E0,2.695376381E0,7.075222785E0
1.439616429E1,3.349807355E-1,6.935437449E0,2.261368554E0,7.302485361E0
1.440617329E1,5.978237137E-1,5.958161307E0,1.581061385E0,6.193289470E0
1.441618229E1,2.119276536E0,4.498486950E0,2.058431579E0,5.381901006E0
1.442619129E1,3.234327989E0,1.954716445E0,6.268505201E0,7.319559507E0
1.443619929E1,1.664612980E0,-7.875642537E-1,1.199583188E1,1.213635762E1
1.444620829E1,-1.396912391E0,-3.588321640E0,1.699539422E1,1.742615394E1
1.445621729E1,-3.997615626E0,-5.149901272E0,2.049592694E1,2.150779940E1
1.446622629E1,-4.579680217E0,-4.952036172E0,2.027873094E1,2.137108003E1
1.447623529E1,-3.299342303E0,-3.470882068E0,1.680016973E1,1.746935559E1
1.448624429E1,-1.640582386E0,-1.770089880E0,1.182318465E1,1.206699731E1
1.449625329E1,-8.868968993E-2,-1.561122525E-1,6.617974570E0,6.620409678E0
1.450626129E1,9.965568242E-1,1.324596659E0,1.702677038E0,2.376297732E0
1.451627029E1,1.251666677E0,2.006642059E0,-2.318958950E0,3.312227715E0
1.452627929E1,6.427041636E-1,1.976485775E0,-5.133772897E0,5.538518649E0
1.453628829E1,-3.152026382E-1,1.749067970E0,-6.823312996E0,7.050970976E0
1.454629729E1,-1.155072136E0,1.465846678E0,-7.262923041E0,7.498863195E0
1.455630629E1,-1.784914326E0,1.163876143E0,-7.567120342E0,7.861414447E0
1.456631529E1,-1.991301450E0,9.852962563E-1,-8.020646176E0,8.322671161E0
1.457632429E1,-1.405066918E0,1.002318890E0,-8.736412615E0,8.905265946E0
1.458633229E1,-6.706199406E-1,1.283358001E0,-9.700464109E0,9.807942842E0
1.459634129E1,-1.246106706E-1,1.587434557E0,-1.079089381E1,1.090774338E1
1.460635029E1,2.589648307E-1,1.623817687E0,-1.112665029E1,1.124749721E1
1.461635929E1,1.815148597E-1,1.355156254E0,-1.006688105E1,1.015930559E1
1.462636829E1,-1.389726199E-1,9.256428891E-1,-8.429160143E0,8.480970986E0
1.463637729E1,-5.507185444E-1,2.956388779E-1,-7.178872824E0,7.206032770E0
1.464638629E1,-9.244799510E-1,-2.217066832E-1,-7.013328209E0,7.077470565E0
1.465639479E1,-1.147467028E0,-5.311612161E-1,-7.602711759E0,7.707142072E0
1.466640379E1,-1.102062010E0,-7.863570960E-1,-8.317933238E0,8.427390551E0
1.467641279E1,-7.910689285E-1,-8.530425440E-1,-8.917534797E0,8.993102829E0
1.468642179E1,-3.788891224E-1,-7.063585612E-1,-9.252035294E0,9.286692439E0
1.469643079E1,-1.280794947E-1,-6.966722099E-1,-9.622867464E0,9.648903293E0
1.470643979E1,4.380053314E-2,-7.551700942E-1,-9.532527983E0,9.562493927E0
1.471644879E1,3.893773096E-1,-8.124340698E-1,-9.274170513E0,9.317827135E0
1.472645779E1,5.061552694E-1,-1.082988393E0,-9.258837944E0,9.335691570E0
1.473646579E1,3.520544956E-1,-1.281944437E0,-9.093288651E0,9.189952252E0
1.474647479E1,2.728616889E-1,-1.736733707E0,-8.271959504E0,8.456713990E0
1.475648379E1,4.070966389E-1,-1.929934483E0,-6.992602753E0,7.265457181E0
1.476649279E1,8.251609001E-1,-1.712181395E0,-6.263522789E0,6.545546071E0
1.477650179E1,1.474581541E0,-1.698026894E0,-5.394161689E0,5.844199379E0
1.478651079E1,1.845439878E0,-1.509375398E0,-4.033094192E0,4.685051889E0
1.479651979E1,1.938188851E0,-1.119431018E0,-2.241982110E0,3.167993941E0
1.480652879E1,1.823591611E0,-8.523992041E-1,7.182427347E-2,2.014256561E0
1.481653679E1,1.500160332E0,-4.700342774E-1,2.235509827E0,2.732932021E0
1.482654579E1,1.201287359E0,-1.285425577E-1,4.544288775E0,4.702145784E0
1.483655479E1,3.085266528E-1,2.863444363E-1,8.094345067E0,8.105282468E0
1.484656379E1,-1.211504857E0,6.324275360E-1,1.124979733E1,1.133250408E1
1.485657279E1,-2.326039051E0,1.426349613E0,1.309067039E1,1.337200741E1
1.486658179E1,-2.396955252E0,2.902542647E0,1.329105798E1,1.381384706E1
1.487659079E1,-1.284129834E0,4.355473703E0,1.431772847E1,1.502053559E1
1.488659879E1,2.195516188E-1,5.111794968E0,1.672196322E1,1.748721546E1
1.489660779E1,2.195023560E-1,5.513211000E0,1.885844109E1,1.964903248E1
1.490661679E1,-1.307157046E0,5.989509984E0,1.698832377E1,1.806062108E1
1.491662579E1,-2.102797035E0,5.316387874E0,1.414327329E1,1.525509471E1
1.492663479E1,-2.087005899E0,5.087443069E0,1.256336030E1,1.371406914E1
1.493664379E1,1.237884790E-1,5.495395119E0,9.968026850E0,1.138315643E1
1.494665279E1,3.532878926E0,5.649024278E0,7.763439438E0,1.023052788E1
1.495666179E1,5.741963432E0,5.063151981E0,7.333571439E0,1.060126983E1
1.496666979E1,5.549700549E0,2.961366514E0,8.397234930E0,1.049201707E1
1.497667879E1,2.817214229E0,-2.449720234E-2,9.669285001E0,1.007136379E1
1.498668779E1,2.880767104E-1,-2.363741167E0,9.854009653E0,1.013764108E1
1.499669679E1,-8.352107289E-1,-3.208361966E0,9.175246734E0,9.755834977E0
1.500670579E1,-1.179749579E0,-3.086429978E0,7.654566037E0,8.337280150E0
1.501671479E1,-1.403006359E0,-2.882876122E0,5.492187921E0,6.359522760E0
1.502672379E1,-1.610495245E0,-2.547257053E0,3.001869884E0,4.253638000E0
1.503673279E1,-1.434388658E0,-1.787465758E0,-4.702681661E-2,2.292316771E0
1.504674079E1,-9.378203005E-1,-8.538900979E-1,-3.191047191E0,3.433863333E0
1.505674979E1,-2.595026466E-1,-6.121274650E-2,-5.780927523E0,5.787072805E0
1.506675879E1,4.602967996E-1,5.465540113E-1,-7.857912317E0,7.890334620E0
1.507676779E1,7.249489063E-1,8.211059292E-1,-9.202744435E0,9.267700416E0
1.508677679E1,5.282802198E-1,5.170223562E-1,-9.676269500E0,9.704462043E0
1.509678579E1,3.079868452E-1,8.641234562E-2,-9.700742437E0,9.706014981E0
1.510679479E1,3.065121409E-2,-2.576907407E-1,-9.506768074E0,9.510309313E0
1.511680379E1,-1.499782675E-1,-7.604966153E-1,-9.165449139E0,9.198168650E0
1.512681179E1,-1.854088129E-1,-9.644017428E-1,-8.911249625E0,8.965200334E0
1.513682079E1,-2.623124896E-1,-1.128372726E0,-9.150252226E0,9.223293807E0
1.514682979E1,-4.115252104E-1,-1.221623391E0,-9.622372205E0,9.708334747E0
1.515683879E1,-4.712686978E-1,-1.199047583E0,-1.000751193E1,1.009009932E1
1.516684779E1,-3.186979575E-1,-1.011779392E0,-9.579710920E0,9.638263704E0
1.517685679E1,-1.878107030E-1,-1.035886001E0,-8.766483675E0,8.829471598E0
1.518686579E1,-3.209898834E-1,-1.078187682E0,-8.267878733E0,8.344060278E0
1.519687479E1,-3.972273794E-1,-1.111172703E0,-7.973662044E0,8.060507475E0
1.520688279E1,-5.458120727E-1,-1.121118086E0,-8.006394172E0,8.102910849E0
1.521689179E1,-8.763188477E-1,-1.260266031E0,-8.196445638E0,8.338940358E0
1.522690079E1,-1.114234817E0,-1.492225807E0,-8.068931313E0,8.281057277E0
1.523690979E1,-1.337792363E0,-1.586751603E0,-7.912052856E0,8.179734070E0
1.524691879E1,-1.549393157E0,-1.710813877E0,-7.963168631E0,8.290932271E0
1.525692779E1,-1.539808986E0,-1.575732379E0,-8.019598355E0,8.316724236E0
1.526693679E1,-1.081999482E0,-1.312420417E0,-7.986266302E0,8.165391581E0
1.527694579E1,-2.665377607E-1,-1.017778343E0,-7.717132999E0,7.788520839E0
1.528695379E1,2.101947581E-1,-7.754958929E-1,-7.259666142E0,7.303993990E0
1.529696279E1,6.012489030E-1,-5.966124630E-1,-6.951944139E0,7.003354481E0
1.530697179E1,7.634153992E-1,-5.541119760E-1,-6.386596153E0,6.455885190E0
1.531698079E1,9.611675017E-1,-4.309124579E-1,-5.714291484E0,5.810564144E0
1.532698979E1,1.270466352E0,-2.625508001E-1,-4.995903738E0,5.161595861E0
1.533699879E1,1.349771700E0,-3.374262969E-1,-3.806369575E0,4.052676830E0
1.534700779E1,1.090388044E0,-5.050430194E-1,-1.782868677E0,2.150031455E0
1.535701579E1,7.401192150E-1,-4.698345950E-1,5.087264729E-1,1.013569743E0
1.536702479E1,6.891523983E-1,2.649744710E-1,3.291752617E0,3.373540838E0
1.537703379E1,9.486723673E-1,8.313941051E-1,6.613258206E0,6.732486874E0
1.538704279E1,1.132558456E0,1.267125107E0,1.047177968E1,1.060879184E1
1.539705179E1,-9.110091356E-1,1.490872469E0,1.428609621E1,1.439253915E1
1.540706079E1,-4.605381069E0,8.417471851E-1,1.756541004E1,1.817860564E1
1.541706979E1,-8.217811364E0,-3.372830401E-1,1.984472955E1,2.148160781E1
1.542707879E1,-7.805294393E0,-4.067733244E-1,2.246524344E1,2.378603052E1
1.543708679E1,-3.741287433E0,1.119662568E0,2.388895391E1,2.420605286E1
1.544709579E1,2.038426719E-1,3.717512362E0,2.032490524E1,2.066308841E1
1.545710479E1,2.727947711E0,6.161377194E0,1.208871140E1,1.383984143E1
1.546711379E1,3.367017100E0,7.630393063E0,5.642377748E0,1.006956449E1
1.547712279E1,2.591908731E0,7.460208097E0,4.149146805E0,8.921217122E0
1.548713179E1,2.995497004E0,5.690017937E0,7.380741513E0,9.789006676E0
1.549714079E1,2.264912551E0,3.056871426E0,1.235077892E1,1.292346826E1
1.550714979E1,-1.353009888E0,-1.144332263E-1,1.542386497E1,1.548351838E1
1.551715779E1,-5.297430616E0,-2.786193581E0,1.462491780E1,1.580233737E1
1.552716679E1,-6.805851456E0,-3.755137733E0,1.270260355E1,1.489217279E1
1.553717579E1,-4.591177889E0,-3.598009892E0,1.090990687E1,1.237136442E1
1.554718479E1,6.202366852E-2,-1.946438688E0,7.814148247E0,8.053159835E0
1.555719379E1,3.605455152E0,-2.380372987E-1,4.245015414E0,5.574596350E0
1.556720279E1,2.685426174E0,-2.840350784E-2,1.198715461E0,2.940958901E0
1.557721179E1,2.491663042E-2,-1.006662202E0,1.901725030E-1,1.024770807E0
1.558721979E1,-7.020082328E-1,-1.618884976E0,4.927682519E-1,1.832054769E0
1.559722879E1,-2.884017425E-1,-1.102619469E0,2.420232725E-1,1.165126827E0
1.560723779E1,-2.459258870E-1,-6.314893502E-1,-9.152921480E-1,1.138867006E0
1.561724679E1,-6.873049705E-1,-4.976070421E-1,-3.009829699E0,3.127151373E0
1.562725579E1,-4.242115487E-1,-2.706215657E-1,-5.268127295E0,5.292103236E0
1.563726479E1,9.113055164E-1,4.204136360E-1,-6.950104020E0,7.022191343E0
1.564727379E1,2.043611226E0,1.295098041E0,-8.024556209E0,8.381355984E0
1.565728179E1,2.195942888E0,1.388514912E0,-8.279700633E0,8.677763618E0
1.566728979E1,1.325852202E0,8.550927240E-1,-7.998012773E0,8.152133215E0
1.567729879E1,4.900256885E-1,2.781527795E-1,-7.409616818E0,7.431010398E0
1.568730779E1,-1.951380316E-2,-1.520737269E-1,-7.223029243E0,7.224656300E0
1.569731679E1,-3.231575558E-1,-3.999241152E-1,-7.795268757E0,7.812207441E0
1.570732579E1,-2.221852047E-1,-5.430899014E-1,-8.346793925E0,8.367393963E0
1.571733479E1,-1.509227390E-1,-6.648765861E-1,-8.717461789E0,8.744082490E0
1.572734379E1,-2.110180095E-1,-8.521004844E-1,-9.003844378E0,9.046536211E0
1.573735279E1,-2.587662994E-1,-1.010618208E0,-8.966778878E0,9.027260526E0
1.574736079E1,-4.349044251E-1,-1.101399959E0,-8.686855123E0,8.767193146E0
1.575736979E1,-7.498649886E-1,-1.316956979E0,-8.499534307E0,8.633583070E0
1.576737879E1,-1.002674401E0,-1.519206322E0,-8.340423383E0,8.536744462E0
1.577738779E1,-1.253468350E0,-1.587412776E0,-8.396090046E0,8.636283360E0
1.578739679E1,-1.274581623E0,-1.692513700E0,-8.682981927E0,8.937747820E0
1.579740579E1,-1.138122885E0,-1.643790022E0,-9.044212970E0,9.262567548E0
1.580741479E1,-7.299438903E-1,-1.432291408E0,-9.231381174E0,9.370308166E0
1.581742379E1,-3.232049548E-1,-1.199762405E0,-9.114567838E0,9.198871569E0
1.582743179E1,-1.975157836E-1,-9.761492376E-1,-9.083902701E0,9.138335083E0
1.583744079E1,-2.933400085E-2,-8.633951855E-1,-8.913426543E0,8.955193157E0
1.584744979E1,1.448810304E-1,-6.775211169E-1,-8.325882527E0,8.354660091E0
1.585745879E1,2.147368387E-1,-4.491537242E-1,-7.593823991E0,7.610125741E0
1.586746779E1,4.555063951E-1,-2.961195190E-1,-6.905371066E0,6.926710793E0
1.587747679E1,5.399628836E-1,-2.022758009E-1,-5.977712057E0,6.005457256E0
1.588748579E1,6.011018090E-1,-2.033237681E-1,-4.610188065E0,4.653654256E0
1.589749379E1,9.572893359E-1,-7.410644174E-2,-3.147736865E0,3.290918110E0
1.590750279E1,1.176856304E0,1.764876795E-1,-1.390290127E0,1.830039698E0
1.591751179E1,1.178395729E0,4.138947214E-1,3.247420782E-1,1.290497095E0
1.592752079E1,1.186793720E0,7.781332795E-1,8.788476223E-1,1.669234518E0
1.593752979E1,5.923370520E-1,8.951939522E-1,1.923944449E0,2.203133596E0
1.594753879E1,-6.818566080E-1,9.113661812E-1,4.323000314E0,4.470329793E0
1.595754779E1,-1.802883843E0,1.492916509E0,6.844247782E0,7.233458202E0
1.596755679E1,-2.152875806E0,1.945844757E0,8.732950478E0,9.202478476E0
1.597756479E1,-1.993440362E0,2.355573045E0,1.022880097E1,1.068414237E1
1.598757379E1,-9.233556046E-1,2.808639287E0,1.313632545E1,1.346492059E1
1.599758279E1,8.775295137E-1,2.402668274E0,1.734812751E1,1.753568935E1
1.600759179E1,1.539039054E0,2.228685834E0,2.040501209E1,2.058397921E1
1.601760079E1,1.191897754E0,1.545209182E0,1.931826028E1,1.941657725E1
1.602760979E1,3.264724886E-1,1.553720681E-1,1.762824890E1,1.763195633E1
1.603761879E1,-4.585373724E-2,9.112520143E-2,1.693650925E1,1.693681647E1
1.604762779E1,3.647552327E-1,2.372186154E-1,1.733628924E1,1.734174857E1
1.605763579E1,2.801981903E-1,-3.827546436E-1,1.745158229E1,1.745802786E1
1.606764479E1,-8.736878930E-1,-1.070294672E0,1.528286989E1,1.534519382E1
1.607765379E1,-2.233827437E0,-1.520243618E0,1.119734430E1,1.151875189E1
1.608766279E1,-2.708497533E0,-1.363283007E0,6.965949975E0,7.597299421E0
1.609767179E1,-1.958910653E0,-1.055954156E0,3.798986880E0,4.402802680E0
1.610768079E1,-5.926555791E-1,-8.065779372E-1,2.020435202E0,2.254765400E0
1.611768979E1,7.276464462E-1,-7.887658565E-1,1.182474235E0,1.596830061E0
1.612769879E1,1.264204862E0,-7.918813992E-1,9.378121144E-1,1.762039059E0
1.613770679E1,9.149138331E-1,-7.633301760E-1,1.060296664E0,1.594982538E0
1.614771579E1,-4.550230131E-4,-7.801920842E-1,9.349551648E-1,1.217719613E0
1.615772479E1,-1.001818076E0,-6.602325082E-1,4.667107201E-1,1.287387012E0
1.616773379E1,-1.606055016E0,-4.101423073E-1,-2.979974985E-1,1.684170993E0
1.617774279E1,-1.860522332E0,-4.854966911E-2,-1.475460670E0,2.375054654E0
1.618775179E1,-1.887221596E0,3.574226416E-1,-3.047563536E0,3.602360310E0
1.619776079E1,-1.727840385E0,6.793765846E-1,-4.564348817E0,4.927500895E0
1.620776979E1,-1.418037504E0,9.932970015E-1,-5.916802197E0,6.164902070E0
1.621777779E1,-1.001529808E0,1.299857674E0,-7.056704609E0,7.244982530E0
1.622778679E1,-4.185014137E-1,1.633817596E0,-7.729352510E0,7.911219476E0
1.623779579E1,1.831381564E-1,1.853124581E0,-7.958962144E0,8.173902905E0
1.624780479E1,4.311244925E-1,1.761880828E0,-7.961947732E0,8.165947836E0
1.625781379E1,3.542459589E-1,1.550073188E0,-7.989186986E0,8.145877840E0
1.626782279E1,2.918606264E-1,1.533136143E0,-8.000331779E0,8.151134745E0
1.627783179E1,3.779169497E-1,1.501357111E0,-7.854933161E0,8.006052045E0
1.628783979E1,4.933070728E-1,1.328824488E0,-7.697492786E0,7.826910091E0
1.629784879E1,4.116082408E-1,1.086042028E0,-7.575478352E0,7.663992491E0
1.630785779E1,1.870942363E-1,9.234506218E-1,-7.267001474E0,7.327828855E0
1.631786679E1,5.479096882E-2,8.522624523E-1,-7.062035515E0,7.113487117E0
1.632787579E1,8.222486213E-2,9.247324046E-1,-7.178285179E0,7.238070811E0
1.633788479E1,6.627672762E-3,7.582309654E-1,-7.140558944E0,7.180706104E0
1.634789379E1,-2.900702090E-1,4.493142668E-1,-6.591953875E0,6.613613228E0
1.635790279E1,-5.148303082E-1,1.769131558E-1,-5.932785560E0,5.957708705E0
1.636791079E1,-5.875079462E-1,-7.935877629E-3,-5.694488719E0,5.724720983E0
1.637791979E1,-7.199666400E-1,-6.027105242E-2,-5.886383227E0,5.930555796E0
1.638792879E1,-9.212257563E-1,-2.207967103E-1,-6.274402703E0,6.345513168E0
1.639793779E1,-1.024885488E0,-4.131749657E-1,-6.486923264E0,6.580370601E0
1.640794679E1,-8.500348824E-1,-3.836699155E-1,-6.438663855E0,6.505855373E0
1.641795579E1,-1.625540935E-1,-2.820151578E-1,-6.095639872E0,6.104324846E0
1.642796479E1,7.417054184E-1,1.091365991E-1,-5.404558623E0,5.456307510E0
1.643797379E1,1.154085784E0,3.994290023E-1,-4.603739755E0,4.762969374E0
1.644798179E1,1.298756644E0,3.934540249E-1,-4.105821860E0,4.324274279E0
1.645799079E1,1.251649574E0,3.295112135E-1,-3.804683238E0,4.018808136E0
1.646799979E1,1.390419204E0,4.449456292E-1,-2.582687087E0,2.966734698E0
1.647800879E1,1.611622150E0,4.217942367E-1,-7.182778180E-1,1.814155273E0
