"Time (s)","Linear Acceleration x (m/s^2)","Linear Acceleration y (m/s^2)","Linear Acceleration z (m/s^2)","Absolute acceleration (m/s^2)"
3.661374998E-3,-3.273826808E-1,-2.286799264E-1,6.136167508E-1,7.321198299E-1
1.367037499E-2,-9.787407236E-1,-3.053801930E-1,-7.529506373E-1,1.272055474E0
2.367937499E-2,-1.254089178E0,-3.355298987E-1,-1.340582947E0,1.866141103E0
3.368837500E-2,-7.643946616E-1,-1.720113435E-1,-6.535783768E-1,1.020319458E0
4.369837500E-2,-2.828499940E-1,-2.515969187E-2,8.437140423E-1,8.902193631E-1
5.370737499E-2,-3.536922276E-1,-7.630674899E-2,2.341771862E0,2.369560374E0
6.371637499E-2,-5.841252954E-1,-3.622961131E-1,2.839007971E0,2.921031855E0
7.372537500E-2,-3.980180691E-1,-4.198827088E-1,1.523628863E0,1.629774458E0
8.373437499E-2,-6.669787332E-2,-5.772985250E-2,-8.228149241E-1,8.275299037E-1
9.374337499E-2,-3.755977978E-1,5.266344479E-1,-1.726015615E0,1.843243731E0
1.037523750E-1,-7.279340561E-1,9.903268352E-1,-1.159089466E0,1.689415171E0
1.137613750E-1,-3.665400222E-1,1.022777420E0,-2.987050116E-1,1.126787435E0
1.237703750E-1,7.755454481E-3,6.965153584E-1,2.933974940E-1,7.558279440E-1
1.337793750E-1,8.854146302E-4,2.683310652E-1,3.095831716E-1,4.096877892E-1
1.437883750E-1,-2.214378574E-1,1.182453185E-2,1.199772638E-1,2.521291100E-1
1.537983750E-1,-3.966664852E-1,-5.744889379E-4,-4.171403646E-3,3.966888342E-1
1.638073750E-1,-5.307206284E-1,1.169001666E-1,-9.115809202E-2,5.510352367E-1
1.738155000E-1,-4.427796744E-1,2.690344852E-1,-2.099963182E-1,5.590454793E-1
1.838245000E-1,-2.701466256E-1,4.614283454E-1,-1.528485560E-1,5.561097000E-1
1.938335000E-1,-3.109414798E-1,5.972875240E-1,-6.677344859E-2,6.766798975E-1
2.038425000E-1,-4.587137756E-1,5.545972949E-1,-9.310930789E-2,7.257174592E-1
2.138515000E-1,-3.485645118E-1,4.143918809E-1,-6.953450382E-2,5.459422104E-1
2.238605000E-1,-2.884142044E-1,3.389011109E-1,-7.434033036E-2,4.511797879E-1
2.338695000E-1,-3.107078835E-1,4.688700968E-1,-2.508397043E-1,6.158726441E-1
2.438785000E-1,-2.726944037E-1,8.697169027E-1,-1.017447098E0,1.366004512E0
2.538875000E-1,-3.681479334E-1,1.118919094E0,-1.515667879E0,1.919573380E0
2.638965000E-1,-7.278677633E-1,1.235575724E0,-6.216221738E-1,1.562962884E0
2.739065000E-1,-6.729416507E-1,1.309263798E0,2.046233118E-1,1.486234456E0
2.839155000E-1,-2.490663169E-1,5.670100567E-1,-6.705545980E-1,9.127857927E-1
2.939245000E-1,-2.419174379E-1,-3.567166999E-1,-1.866356977E0,1.915478847E0
3.039335000E-1,-1.916223201E-1,-5.870078266E-2,-2.472798024E0,2.480906077E0
3.139425000E-1,5.829761714E-1,2.008672651E0,-6.976406550E-1,2.204842289E0
3.239515000E-1,1.361678385E0,3.389718622E0,1.502216359E0,3.949811939E0
3.339605000E-1,2.108635188E0,3.355325007E0,2.150128784E0,4.508614205E0
3.439695000E-1,3.484629165E0,2.740285629E0,2.075110762E0,4.894679807E0
3.539785000E-1,4.071742533E0,1.834144081E0,1.626377891E0,4.752712574E0
3.639875000E-1,3.950938766E0,1.336724077E0,4.978342795E-1,4.200546078E0
3.739965000E-1,4.037880723E0,1.412780272E0,8.891510010E-2,4.278823989E0
3.840065000E-1,4.792391397E0,1.928552932E0,1.535330311E0,5.389208744E0
3.940155000E-1,4.793812271E0,2.407089646E0,4.051079058E0,6.722050148E0
4.040245000E-1,4.083766163E0,2.854884916E0,7.492271889E0,8.997869304E0
4.140335000E-1,3.351048061E0,2.022652174E0,1.150358052E1,1.215125548E1
4.240425000E-1,4.251815433E0,1.038742658E0,1.428083254E1,1.493650223E1
4.340515000E-1,6.527118194E0,7.688544792E-1,1.423374842E1,1.567781883E1
4.440605000E-1,7.582307900E0,1.884607306E0,1.233830096E1,1.460399974E1
4.540695000E-1,8.691888406E0,3.790699621E0,9.971620549E0,1.376050668E1
4.640785000E-1,9.624425747E0,4.657891989E0,8.363134553E0,1.357451835E1
4.740875000E-1,8.220715091E0,4.670062383E0,7.959601244E0,1.235900041E1
4.840965000E-1,6.772485489E0,4.300569810E0,8.578894472E0,1.174559027E1
4.941055000E-1,5.359091844E0,3.827831780E0,9.863372215E0,1.185994405E1
5.041155000E-1,4.085380579E0,3.794174622E0,1.098809350E1,1.232170014E1
5.141245000E-1,3.317167540E0,3.679563932E0,1.197630920E1,1.296050822E1
5.241335000E-1,2.745457199E0,4.774438106E0,1.227103226E1,1.345031699E1
5.341425000E-1,3.009823852E0,6.494838055E0,1.159149224E1,1.362367988E1
5.441515000E-1,3.900455075E0,7.996263871E0,1.048897634E1,1.375399616E1
5.541605000E-1,2.774983006E0,9.467878243E0,8.997192001E0,1.335255455E1
5.641695000E-1,1.686694844E0,1.045124075E1,7.950459123E0,1.323945516E1
5.741785000E-1,7.353617741E-1,1.126309741E1,7.313096244E0,1.344914484E1
5.841875000E-1,1.409128540E-1,1.120966672E1,6.215575036E0,1.281834067E1
5.941965000E-1,5.828080639E-1,1.054489444E1,4.866017198E0,1.162809474E1
6.042055000E-1,1.251452377E0,8.540458969E0,3.668753015E0,9.378982948E0
6.142145000E-1,1.524126754E0,5.971906357E0,2.999228112E0,6.854341483E0
6.242245000E-1,1.946196467E0,2.861928472E0,2.728347076E0,4.407061724E0
6.342335000E-1,2.770038893E0,-8.133588070E-1,2.644838312E0,3.915333666E0
6.442425000E-1,3.471824932E0,-4.586948891E0,2.761832326E0,6.381331074E0
6.542515000E-1,3.998348575E0,-7.728277792E0,3.041067864E0,9.217437969E0
6.642605000E-1,4.187151660E0,-1.045897896E1,3.081907741E0,1.167992445E1
6.742695000E-1,4.218184588E0,-1.287258445E1,2.909799042E0,1.385508723E1
6.842785000E-1,3.615055110E0,-1.406881250E1,3.738687469E0,1.499926307E1
6.942875000E-1,3.128372641E0,-1.535571099E1,4.050312488E0,1.618609300E1
7.042965000E-1,2.641417398E0,-1.651771296E1,3.538112769E0,1.709766561E1
7.143055000E-1,1.842565241E0,-1.633675801E1,2.563100084E0,1.663893599E1
7.243145000E-1,2.144112292E0,-1.606085129E1,7.770774186E-1,1.622196076E1
7.343235000E-1,3.339932504E0,-1.563154521E1,-1.620055004E0,1.606626692E1
7.443335000E-1,3.910518426E0,-1.473604062E1,-3.340577452E0,1.560777067E1
7.543425000E-1,3.508712969E0,-1.434257212E1,-3.808559357E0,1.524878901E1
7.643515000E-1,2.703891681E0,-1.404939507E1,-3.233085748E0,1.466797108E1
7.743605000E-1,1.512654809E0,-1.345521622E1,-1.752002395E0,1.365285613E1
7.843695000E-1,5.895303154E-1,-1.296542654E1,6.169148728E-2,1.297896903E1
7.943785000E-1,3.113811904E-1,-1.233930902E1,1.710176092E0,1.246114793E1
8.043875000E-1,9.062277943E-1,-1.159639923E1,2.873870240E0,1.198152136E1
8.143965000E-1,2.728615463E0,-1.101349498E1,3.417216908E0,1.184988546E1
8.244055000E-1,5.034935657E0,-1.025907552E1,3.701044264E0,1.201236597E1
8.344145000E-1,6.992727883E0,-9.543632430E0,4.079773099E0,1.251493954E1
8.444235000E-1,7.921438222E0,-9.105951381E0,4.565030018E0,1.290376043E1
8.544325000E-1,7.889234097E0,-8.873504679E0,5.026548411E0,1.289361427E1
8.644425000E-1,7.149833212E0,-8.731009787E0,5.385876185E0,1.250433162E1
8.744515000E-1,6.131011434E0,-8.523469884E0,5.489744954E0,1.184804371E1
8.844605000E-1,5.542582734E0,-8.323990953E0,5.223568003E0,1.128249580E1
8.944695000E-1,5.780707083E0,-8.178688813E0,4.495569774E0,1.097805414E1
9.044785000E-1,5.917941819E0,-7.932281883E0,3.586944036E0,1.052659958E1
9.144875000E-1,5.749472426E0,-7.814082173E0,2.763071351E0,1.008716396E1
9.244965000E-1,5.874825035E0,-7.553569420E0,1.971225328E0,9.770143779E0
9.345055000E-1,6.249543266E0,-6.762606034E0,9.875773282E-1,9.260936258E0
9.445145000E-1,6.276317666E0,-5.914976696E0,8.188002259E-2,8.624721276E0
9.545235000E-1,5.986837807E0,-5.174965362E0,-6.367512596E-1,7.939014145E0
9.645325000E-1,5.085577807E0,-4.265452602E0,-1.255854453E0,6.755320713E0
9.745425000E-1,3.661646894E0,-2.948528659E0,-1.787368402E0,5.029529306E0
9.845515000E-1,1.968610745E0,-1.397990325E0,-2.029541510E0,3.154178808E0
9.945605000E-1,2.443376005E-2,8.363623381E-2,-1.995489811E0,1.997391202E0
1.004569500E0,-1.973519483E0,1.765764402E0,-1.704075108E0,3.149059390E0
1.014578500E0,-3.340182180E0,4.246860210E0,-1.510354514E0,5.610152351E0
1.024587500E0,-4.939645337E0,7.606320076E0,-1.765647750E0,9.239789669E0
1.034596500E0,-7.523855039E0,1.104275912E1,-2.232555668E0,1.354751743E1
1.044605500E0,-1.032709501E1,1.371902739E1,-2.451891012E0,1.734567304E1
1.054614500E0,-1.282336843E1,1.560331368E1,-2.507770221E0,2.035168512E1
1.064623500E0,-1.530303109E1,1.685551128E1,-2.063450829E0,2.285932743E1
1.074632500E0,-1.822152377E1,1.776768160E1,-1.097474138E0,2.547388639E1
1.084641500E0,-2.080685614E1,1.825105104E1,-6.440939006E-1,2.768467055E1
1.094650500E0,-2.224019581E1,1.705869969E1,-9.551874080E-1,2.804528352E1
1.104660500E0,-2.153037891E1,1.479655463E1,-2.045942803E0,2.620460125E1
1.114669500E0,-1.864630528E1,1.309056865E1,-3.452211616E0,2.304268763E1
1.124678500E0,-1.519625859E1,1.160298319E1,-4.637919362E0,1.967398765E1
1.134687500E0,-1.203046377E1,9.570641888E0,-5.964908409E0,1.648967486E1
1.144696500E0,-9.711518855E0,7.358753058E0,-8.047120614E0,1.460208873E1
1.154705500E0,-8.003378763E0,5.079084474E0,-9.986732093E0,1.376902279E1
1.164714500E0,-6.201162819E0,2.768271865E0,-1.040513663E1,1.242516067E1
1.174723875E0,-3.796721084E0,1.040122601E0,-8.560266412E0,9.422054291E0
1.184732875E0,-6.797850126E-1,-1.973751032E-1,-5.463566970E0,5.509231219E0
1.194741875E0,2.909857514E0,-1.248890419E0,-2.276503487E0,3.899931558E0
1.204750875E0,6.143634987E0,-2.118453832E0,4.074021193E-1,6.511380344E0
1.214759875E0,8.730923249E0,-2.932541202E0,2.882941318E0,9.650915465E0
1.224769875E0,1.055876169E1,-3.785977410E0,5.363514093E0,1.243335662E1
1.234778875E0,1.139776580E1,-4.747024021E0,7.320362579E0,1.435378036E1
1.244787875E0,1.132083399E1,-5.911283010E0,7.954988376E0,1.504614200E1
1.254796875E0,1.006495497E1,-6.861771303E0,7.550972087E0,1.433193649E1
1.264805875E0,8.541914926E0,-7.387172865E0,6.860720558E0,1.321378523E1
1.274814875E0,7.881413446E0,-7.899273766E0,5.843833623E0,1.259625323E1
1.284823875E0,7.716963429E0,-8.137219775E0,4.503399488E0,1.208496906E1
1.294832875E0,7.586411476E0,-8.003223812E0,3.014686104E0,1.143212853E1
1.304841875E0,7.649238054E0,-8.068776362E0,1.599725697E0,1.123276979E1
1.314850875E0,7.649652037E0,-8.081440262E0,4.492214057E-1,1.113681520E1
1.324859875E0,7.144561363E0,-7.941443301E0,-3.151736945E-2,1.068233458E1
1.334868875E0,6.139399264E0,-7.803608640E0,2.199193355E-1,9.931610930E0
1.344878875E0,4.652196801E0,-7.596534176E0,1.014477590E0,8.965457676E0
1.354887875E0,3.541578999E0,-7.480123129E0,1.914630420E0,8.494753291E0
1.364896875E0,3.029995576E0,-7.358058994E0,2.816062328E0,8.441096634E0
1.374905875E0,3.087198887E0,-7.158778283E0,3.645215926E0,8.606189785E0
1.384914875E0,3.775793315E0,-6.892626475E0,4.269317611E0,8.943824000E0
1.394923875E0,5.037104389E0,-6.471959655E0,4.454364738E0,9.332740627E0
1.404932875E0,6.616932011E0,-5.998230522E0,4.274243306E0,9.901096630E0
1.414941875E0,8.101535388E0,-5.497131742E0,3.882444774E0,1.053217501E1
1.424950875E0,8.692764319E0,-5.096309786E0,3.371363920E0,1.062556444E1
1.434959875E0,8.383393402E0,-4.924908600E0,2.895691757E0,1.014500076E1
1.444968875E0,7.890349161E0,-4.975687575E0,2.491516131E0,9.655191834E0
1.454977875E0,7.581493383E0,-4.970777668E0,2.232970674E0,9.336692700E0
1.464986875E0,7.496377804E0,-4.777863990E0,2.100656808E0,9.134354028E0
1.474996875E0,7.674417919E0,-4.645907536E0,1.828921640E0,9.155659539E0
1.485005875E0,7.211648222E0,-4.380882486E0,1.503875507E0,8.570976781E0
1.495014875E0,5.925881753E0,-3.765841938E0,9.229226182E-1,7.081625958E0
1.505023875E0,4.015241473E0,-3.171352599E0,-1.190080878E-1,5.117988308E0
1.515032875E0,2.201657957E0,-2.149915361E0,-1.322451754E0,3.349374936E0
1.525041875E0,4.626164997E-1,-9.037690401E-1,-1.861067293E0,2.119996220E0
1.535050875E0,-2.215615845E0,-1.495103806E-1,-1.652721351E0,2.768175355E0
1.545059875E0,-6.114801782E0,3.917669570E-1,-1.865370551E0,6.404989421E0
1.555068875E0,-1.118844133E1,2.006445154E0,-3.172013335E0,1.180121647E1
1.565077875E0,-1.457293371E1,4.299724887E0,-5.517999870E0,1.616497305E1
1.575086875E0,-1.613312755E1,6.981933923E0,-7.077688512E0,1.895043220E1
1.585095875E0,-1.718566379E1,9.791508180E0,-6.502351727E0,2.082069284E1
1.595105875E0,-1.717904825E1,1.114174430E1,-4.492386550E0,2.096281712E1
1.605114875E0,-1.695261015E1,1.166677631E1,-2.341613402E0,2.071202099E1
1.615123875E0,-1.700806631E1,1.293853519E1,-9.265103236E-1,2.139014806E1
1.625132875E0,-1.705277529E1,1.350475968E1,-6.884041008E-1,2.176349189E1
1.635141875E0,-1.704408984E1,1.315137033E1,-1.231914636E0,2.156332891E1
1.645150875E0,-1.640966928E1,1.321887527E1,-1.675256228E0,2.113817382E1
1.655159875E0,-1.595408347E1,1.342135031E1,-2.404566573E0,2.098683788E1
1.665168875E0,-1.464499012E1,1.274808787E1,-4.319662138E0,1.989092660E1
1.675177875E0,-1.244260126E1,1.139902061E1,-5.890363426E0,1.787323078E1
1.685186875E0,-9.595548103E0,9.890253035E0,-5.215797054E0,1.473418431E1
1.695195875E0,-5.504834279E0,8.139276826E0,-3.184730444E0,1.032925630E1
1.705204875E0,-1.141001689E0,6.432897331E0,-1.035714970E0,6.614889146E0
1.715213875E0,3.522184954E0,5.460876666E0,9.666755788E-1,6.569735343E0
1.725223875E0,8.008153015E0,4.316291803E0,2.361016949E0,9.398685582E0
1.735232875E0,1.211733352E1,2.942959771E0,2.685603930E0,1.275551850E1
1.745241875E0,1.423223166E1,1.281585125E0,2.495299280E0,1.450604691E1
1.755250875E0,1.357417314E1,-8.177149826E-1,2.381235013E0,1.380569138E1
1.765259875E0,1.143005880E1,-3.020461691E0,2.486400110E0,1.208104377E1
1.775268875E0,9.135825976E0,-4.660767649E0,2.653472018E0,1.059372385E1
1.785277875E0,6.814887743E0,-6.282090622E0,2.523908829E0,9.606116453E0
1.795286875E0,4.708303174E0,-7.641539610E0,1.631068819E0,9.122589100E0
1.805295875E0,3.243999576E0,-8.871238298E0,5.584222510E-2,9.445926135E0
1.815304875E0,2.282641894E0,-1.006118937E1,-1.486783218E0,1.042345959E1
1.825313875E0,2.056930014E0,-1.074065220E1,-2.331989909E0,1.118171488E1
1.835322875E0,2.991256018E0,-1.088426683E1,-2.473516940E0,1.155565503E1
1.845331875E0,3.838157963E0,-1.087244610E1,-2.235810374E0,1.174480263E1
1.855341875E0,3.997497513E0,-1.097791350E1,-1.324121426E0,1.175788538E1
1.865350875E0,3.413551873E0,-1.070549055E1,7.512768719E-1,1.126162871E1
1.875359875E0,2.581053375E0,-1.007163600E1,3.803671962E0,1.107102564E1
1.885368875E0,2.109701135E0,-9.083415627E0,6.931726806E0,1.161929924E1
1.895377875E0,1.970454957E0,-8.247385411E0,8.517223889E0,1.201853409E1
1.905386875E0,1.984523358E0,-7.807813958E0,7.866276759E0,1.125960043E1
1.915395875E0,2.556182828E0,-7.317569949E0,6.049488384E0,9.832456982E0
1.925404875E0,3.809463921E0,-6.349239462E0,4.224741948E0,8.524863731E0
1.935413875E0,5.061801274E0,-5.246397872E0,2.595618497E0,7.738459675E0
1.945422875E0,6.500162530E0,-4.653477341E0,1.452326454E0,8.125036394E0
1.955431875E0,7.615410157E0,-3.912245108E0,1.056900748E0,8.626538868E0
1.965440875E0,8.409766098E0,-3.393942066E0,1.628163046E0,9.213789854E0
1.975450875E0,8.509115555E0,-3.331586773E0,2.793615744E0,9.555564184E0
1.985459875E0,8.226951731E0,-3.459617992E0,3.858382312E0,9.723106783E0
1.995468875E0,7.384547465E0,-3.921486633E0,4.478098586E0,9.484880897E0
2.005477875E0,5.967730860E0,-4.569744628E0,4.104928991E0,8.564275778E0
2.015486875E0,4.424074114E0,-5.343131284E0,2.900383563E0,7.518890111E0
2.025495875E0,3.052112669E0,-5.653493890E0,1.230585126E0,6.541538401E0
2.035504875E0,2.489012938E0,-5.311168064E0,-2.944730893E-1,5.872853311E0
2.045513875E0,2.210788969E0,-4.872738572E0,-6.676070166E-1,5.392297116E0
2.055522875E0,1.325992389E0,-4.238943080E0,-1.841057244E-1,4.445310920E0
2.065531875E0,5.602351803E-1,-3.202217712E0,3.875489219E-1,3.273874753E0
2.075540875E0,-2.941330737E-1,-1.882033947E0,1.153120482E0,2.226713472E0
2.085549875E0,-1.535954209E0,2.140431762E-1,1.971530552E0,2.508366507E0
2.095558875E0,-3.475278005E0,3.216306578E0,2.341088469E0,5.282317714E0
2.105568875E0,-6.490161452E0,6.290960264E0,2.150577850E0,9.291036638E0
2.115577875E0,-9.843495190E0,9.025187300E0,1.426967372E0,1.343073487E1
2.125586875E0,-1.272136843E1,1.099617318E1,-5.165877619E-1,1.682307649E1
2.135595875E0,-1.403843505E1,1.286110753E1,-3.058328552E0,1.928313043E1
2.145604875E0,-1.494684795E1,1.421641494E1,-4.767310935E0,2.117172574E1
2.155613875E0,-1.695062326E1,1.580878718E1,-4.994679916E0,2.371050840E1
2.165622875E0,-1.877079484E1,1.676473209E1,-4.563384612E0,2.557779232E1
2.175631667E0,-1.946645446E1,1.621637553E1,-4.418325424E0,2.571838416E1
2.185640667E0,-1.846370141E1,1.464379729E1,-4.609770573E0,2.401247704E1
2.195649667E0,-1.584543752E1,1.396353923E1,-4.122805683E0,2.151873242E1
2.205658667E0,-1.354885470E1,1.344982859E1,-3.168975414E0,1.935230627E1
2.215667667E0,-1.279541991E1,1.148879292E1,-2.864576384E0,1.743332818E1
2.225676667E0,-1.224649968E1,8.586692904E0,-4.053447765E0,1.549640243E1
2.235686667E0,-1.117581836E1,5.975396560E0,-5.729308888E0,1.390788483E1
2.245695667E0,-1.003018977E1,4.848242832E0,-6.063650340E0,1.268376998E1
2.255704667E0,-5.967553105E0,3.566672909E0,-4.374585035E0,8.214002674E0
2.265713667E0,-5.363656765E-1,1.847288037E0,-1.332935666E0,2.340273215E0
2.275722667E0,4.136528513E0,1.071134478E0,1.766206744E0,4.623600705E0
2.285731667E0,8.398737080E0,6.354695499E-1,3.112488095E0,8.979431398E0
2.295740667E0,1.148036474E1,-2.851605213E-1,2.752028592E0,1.180905383E1
2.305749667E0,1.258912313E1,-1.678999323E0,1.945296142E0,1.284870565E1
2.315758667E0,1.177757053E1,-3.091277320E0,1.608264971E0,1.228225057E1
2.325767667E0,9.343642452E0,-4.380305366E0,1.832185848E0,1.048082222E1
2.335776667E0,6.948937501E0,-5.679999318E0,2.139188936E0,9.226388998E0
2.345785667E0,5.535670155E0,-6.570385251E0,2.502356869E0,8.948485700E0
2.355795667E0,5.247252735E0,-6.520376939E0,3.032273359E0,8.901890721E0
2.365804667E0,5.856595756E0,-6.418736544E0,3.715595937E0,9.450161154E0
2.375813667E0,6.965080494E0,-6.623477384E0,4.211541858E0,1.049380216E1
2.385822667E0,7.775252568E0,-6.617553570E0,4.463077089E0,1.114296302E1
2.395831667E0,7.510639747E0,-6.523818610E0,4.702051038E0,1.100359953E1
2.405840667E0,6.588553135E0,-6.648607548E0,4.721303581E0,1.048349761E1
2.415849667E0,5.354102415E0,-6.766900814E0,4.488329751E0,9.726379761E0
2.425858667E0,4.496272609E0,-6.751799210E0,3.896583049E0,8.999256603E0
2.435867667E0,4.344030409E0,-6.841603087E0,2.986853357E0,8.637095922E0
2.445876667E0,4.483951941E0,-6.954110532E0,2.125413481E0,8.543000689E0
2.455885667E0,5.142150788E0,-6.823511217E0,1.402595007E0,8.658480975E0
2.465894667E0,6.066154702E0,-6.532452024E0,9.500345492E-1,8.965139595E0
2.475903667E0,6.803577474E0,-6.446548825E0,1.128751187E0,9.440378035E0
2.485912667E0,7.259608254E0,-6.455911971E0,2.195586793E0,9.959985580E0
2.495922667E0,7.357692958E0,-6.516214891E0,3.710050730E0,1.050529288E1
2.505931667E0,6.912335100E0,-6.551861272E0,4.970035071E0,1.074283535E1
2.515940667E0,6.401037607E0,-6.550534539E0,5.584021951E0,1.072679292E1
2.525949667E0,6.092209895E0,-6.471997077E0,5.485216870E0,1.044458576E1
2.535958667E0,5.908407934E0,-6.229197294E0,4.668087486E0,9.772575097E0
2.545967667E0,6.466355098E0,-5.924521691E0,3.228010949E0,9.345253352E0
2.555976667E0,7.263250485E0,-5.543703060E0,1.639917411E0,9.283144960E0
2.565985667E0,7.502605088E0,-5.228441073E0,3.438212505E-1,9.151168899E0
2.575994667E0,7.304121938E0,-5.070446382E0,-7.012247059E-1,8.919155783E0
2.586003667E0,6.484528245E0,-4.991210178E0,-1.344493857E0,8.292704585E0
2.596012667E0,4.954828802E0,-4.564844077E0,-1.647964349E0,6.935698696E0
2.606021667E0,3.554208400E0,-4.059546996E0,-1.925671132E0,5.728920358E0
2.616030667E0,2.372172121E0,-3.731889496E0,-2.018044568E0,4.860730774E0
2.626040667E0,6.085495538E-1,-3.209611516E0,-1.740314688E0,3.701436729E0
2.636049667E0,-1.488714554E0,-2.117044653E0,-1.895248069E0,3.207820807E0
2.646058667E0,-3.265033180E0,-4.969115889E-1,-3.096674885E0,4.527334551E0
2.656067667E0,-5.106608487E0,1.615586854E0,-3.584002887E0,6.444582828E0
2.666076667E0,-6.804817668E0,4.173339660E0,-2.603730631E0,8.396530272E0
2.676085667E0,-9.086133413E0,7.036252218E0,-1.519237604E0,1.159201227E1
2.686094667E0,-1.226979148E1,8.904662152E0,-1.956647634E0,1.528624417E1
2.696103667E0,-1.607089680E1,9.234313552E0,-3.775030545E0,1.891552607E1
2.706112667E0,-2.042728998E1,9.789624792E0,-6.068896462E0,2.345085145E1
2.716121667E0,-2.452185186E1,1.090163072E1,-7.384606522E0,2.783341848E1
2.726130667E0,-2.719866041E1,1.151015163E1,-7.403257971E0,3.044764272E1
2.736139667E0,-2.693301672E1,1.185270374E1,-7.034663529E0,3.025492467E1
2.746148667E0,-2.443596094E1,1.222662382E1,-6.780735326E0,2.815288420E1
2.756158667E0,-2.038557595E1,1.201031427E1,-6.389088821E0,2.450795404E1
2.766167667E0,-1.579021993E1,1.171621101E1,-5.268369370E0,2.035574518E1
2.776176667E0,-1.268908128E1,1.121031108E1,-3.769689406E0,1.734630844E1
2.786185667E0,-9.933390284E0,9.052313118E0,-3.312328384E0,1.384153657E1
2.796194667E0,-6.504371940E0,7.029855364E0,-3.135446310E0,1.007753662E1
2.806203667E0,-3.420052807E0,6.501966396E0,-2.329386874E0,7.707033893E0
2.816212667E0,-6.857099962E-1,5.730804605E0,-2.659026288E0,6.354741570E0
2.826221667E0,2.040423324E0,4.913443964E0,-4.739499531E0,7.125174716E0
2.836230667E0,5.006387796E0,4.040669260E0,-7.619924208E0,9.972671245E0
2.846239667E0,7.416156344E0,2.732375223E0,-9.734077413E0,1.253864077E1
2.856248667E0,8.932497822E0,1.033471393E0,-9.838627968E0,1.332877266E1
2.866257667E0,9.613394390E0,-7.999850553E-1,-7.453069232E0,1.219038838E1
2.876266667E0,9.498143431E0,-2.804690078E0,-3.131919854E0,1.038700809E1
2.886276667E0,8.819541310E0,-4.732865573E0,1.799076867E0,1.016961174E1
2.896285667E0,8.039730318E0,-6.085582076E0,6.536586006E0,1.201659392E1
2.906294667E0,7.713494276E0,-7.102009420E0,1.064990809E1,1.494513547E1
2.916303667E0,7.891060182E0,-7.507039032E0,1.312946082E1,1.705893335E1
2.926312667E0,7.931210089E0,-7.539389337E0,1.379762800E1,1.761025336E1
2.936321667E0,7.624016089E0,-7.672971902E0,1.243240956E1,1.647922713E1
2.946330667E0,7.285871608E0,-7.684762813E0,9.597128606E0,1.429140938E1
2.956339667E0,7.261600401E0,-7.468348006E0,6.779603890E0,1.242859973E1
2.966348667E0,7.079212881E0,-7.095226650E0,4.653733741E0,1.105055356E1
2.976357667E0,6.336263906E0,-6.652218788E0,3.289667207E0,9.758184535E0
2.986366667E0,5.581997645E0,-6.617476972E0,2.924816153E0,9.138065917E0
2.996375667E0,5.228042293E0,-6.762847524E0,3.500263742E0,9.236903112E0
3.006384667E0,5.334469804E0,-6.642693089E0,4.419240513E0,9.597480205E0
3.016394667E0,5.508613334E0,-6.417846597E0,4.993972403E0,9.822084105E0
3.026403667E0,5.672713103E0,-6.356416335E0,5.151903359E0,9.956194593E0
3.036412667E0,5.585034689E0,-6.080650535E0,5.331508774E0,9.828118294E0
3.046421667E0,5.506376774E0,-5.896094867E0,5.358894793E0,9.685136719E0
3.056430667E0,5.988552210E0,-5.684956588E0,5.177785474E0,9.746330150E0
3.066439667E0,6.772393688E0,-5.060870397E0,4.720173022E0,9.682859020E0
3.076448667E0,7.335419744E0,-4.676748090E0,4.186955194E0,9.654581778E0
3.086457667E0,7.278163809E0,-4.699227710E0,3.689133486E0,9.416162455E0
3.096466667E0,6.833083693E0,-4.685375656E0,3.123746324E0,8.854466042E0
3.106475667E0,6.368559832E0,-4.623192272E0,2.380841203E0,8.221974577E0
3.116484667E0,6.057548770E0,-4.578437099E0,1.705394239E0,7.782310254E0
3.126493667E0,6.627323098E0,-4.295689139E0,1.041954241E0,7.966180092E0
3.136502667E0,7.300856268E0,-3.995380236E0,6.411352095E-1,8.347252232E0
3.146512667E0,7.224450701E0,-3.795637595E0,4.632693413E-1,8.173993587E0
3.156521667E0,6.712945046E0,-3.516812532E0,2.954171222E-1,7.584119781E0
3.166530667E0,5.648163568E0,-3.014896311E0,3.818185043E-1,6.413823885E0
3.176539792E0,4.379330635E0,-2.078836023E0,5.110934258E-1,4.874557673E0
3.186548792E0,3.333145056E0,-1.192986944E0,2.898640215E-1,3.552055034E0
3.196557792E0,1.807668473E0,-3.630939656E-1,-2.451746294E-1,1.860003531E0
3.206566792E0,-7.727697748E-1,8.346005720E-1,-1.356444104E0,1.770218022E0
3.216575792E0,-4.035396826E0,2.800919793E0,-3.192406376E0,5.858415972E0
3.226584792E0,-7.743608022E0,5.456690644E0,-5.048973652E0,1.073457372E1
3.236593792E0,-1.094580293E1,7.704434016E0,-6.317426516E0,1.480131018E1
3.246602792E0,-1.295316142E1,9.098292114E0,-6.256963967E0,1.702095497E1
3.256611792E0,-1.446051046E1,1.013725346E1,-5.677659262E0,1.855009664E1
3.266620792E0,-1.662441295E1,1.084813923E1,-5.821112512E0,2.068667642E1
3.276629792E0,-1.995749193E1,1.096412693E1,-6.653812155E0,2.372312753E1
3.286639792E0,-2.392882491E1,1.065009052E1,-7.492533259E0,2.724245114E1
3.296648792E0,-2.771608052E1,9.143657151E0,-8.524953908E0,3.040497368E1
3.306657792E0,-2.951535999E1,7.374147608E0,-9.949892296E0,3.200835649E1
3.316666792E0,-2.774622175E1,6.320827256E0,-1.084301940E1,3.045286108E1
3.326675792E0,-2.316394361E1,5.642430373E0,-1.110119152E1,2.629908282E1
3.336684792E0,-1.820993927E1,4.936628759E0,-1.199491972E1,2.235733192E1
3.346693792E0,-1.395780896E1,4.516261901E0,-1.272712794E1,1.942155602E1
3.356702792E0,-9.406207075E0,4.249962743E0,-1.145757697E1,1.542125108E1
3.366711792E0,-4.859477087E0,3.131830099E0,-6.957111908E0,9.045677611E0
3.376720792E0,-1.303357233E0,2.468309702E0,-9.921149138E-1,2.962361366E0
3.386729792E0,2.891879665E0,2.070210795E0,3.266654321E0,4.829054895E0
3.396738792E0,7.958300239E0,1.533838686E0,4.505972263E0,9.273132688E0
3.406747792E0,1.203697991E1,8.858818227E-1,3.981498069E0,1.270928790E1
3.416756792E0,1.374717120E1,6.219917178E-2,3.106313142E0,1.409389109E1
3.426766792E0,1.279183089E1,-9.762318295E-1,2.916551406E0,1.315637633E1
3.436775792E0,1.090556473E1,-2.268729029E0,3.641481894E0,1.171916652E1
3.446784792E0,9.307911871E0,-3.799982661E0,4.681441065E0,1.109022011E1
3.456793792E0,8.400269635E0,-4.881559097E0,5.963332000E0,1.139980165E1
3.466802792E0,8.085716915E0,-5.412558784E0,7.190710512E0,1.209879863E1
3.476811792E0,7.873933103E0,-5.907207500E0,7.564236495E0,1.241416919E1
3.486820792E0,7.882598092E0,-6.260006858E0,6.936411595E0,1.222443636E1
3.496829792E0,7.998108083E0,-6.268891118E0,5.873075548E0,1.173719494E1
3.506838792E0,7.660126154E0,-6.152739102E0,4.619710548E0,1.085704641E1
3.516847792E0,6.697582657E0,-6.252318939E0,3.570313093E0,9.833424690E0
3.526856792E0,5.429187096E0,-6.562664587E0,2.989151898E0,9.026608891E0
3.536865792E0,4.388372185E0,-6.648318111E0,2.779061439E0,8.436890814E0
3.546874792E0,4.050783189E0,-6.562614301E0,2.772185991E0,8.195228251E0
3.556884792E0,4.157757999E0,-6.562268146E0,2.910655366E0,8.295916433E0
3.566893792E0,4.677479576E0,-6.577208952E0,3.283496641E0,8.713199353E0
3.576902792E0,5.813128724E0,-6.487724333E0,3.628216901E0,9.436471293E0
3.586911792E0,6.722205867E0,-6.235590640E0,4.023778701E0,1.001306334E1
3.596920792E0,7.465214483E0,-6.058153372E0,4.643331545E0,1.067666509E1
3.606929792E0,7.869230188E0,-5.639166457E0,5.193480570E0,1.098622877E1
3.616938792E0,8.047294861E0,-5.277994471E0,5.337000479E0,1.100453335E1
3.626947792E0,8.074027746E0,-5.159805871E0,5.351658279E0,1.097514314E1
3.636956792E0,8.158481421E0,-4.931504844E0,5.247981883E0,1.088218144E1
3.646965792E0,8.469084347E0,-4.751998247E0,4.681314765E0,1.078061153E1
3.656974792E0,8.802064567E0,-4.432014633E0,3.741372803E0,1.054120320E1
3.666983792E0,8.854836858E0,-4.161341758E0,2.890193620E0,1.020186846E1
3.676992792E0,8.599325228E0,-3.956360596E0,2.058516948E0,9.687036470E0
3.687001792E0,8.022436008E0,-3.802824993E0,1.350009535E0,8.980171668E0
3.697011792E0,7.213824556E0,-3.589493423E0,9.980241099E-1,8.119099696E0
3.707020792E0,5.869995820E0,-3.165538713E0,7.058106771E-1,6.706389116E0
3.717029792E0,4.431018852E0,-2.859173849E0,5.188497573E-2,5.273660514E0
3.727038792E0,2.967934983E0,-2.262603486E0,-9.360550261E-1,3.847624151E0
3.737047792E0,1.497949646E0,-1.343380839E0,-1.594488931E0,2.567278748E0
3.747056792E0,1.913635808E-1,-1.736605507E-1,-1.923110344E0,1.940394651E0
3.757065792E0,-1.035945350E0,1.126784769E0,-2.235922641E0,2.709645131E0
3.767074792E0,-3.046644353E0,2.526014119E0,-1.832663274E0,4.361358024E0
3.777083792E0,-5.777561281E0,4.167139857E0,-1.232370865E0,7.229384959E0
3.787092792E0,-8.898785700E0,6.622625445E0,-8.796220860E-1,1.112750150E1
3.797101792E0,-1.253551352E1,8.716886423E0,-1.564737420E0,1.534834229E1
3.807110792E0,-1.741357072E1,9.526318824E0,-3.676439180E0,2.018661439E1
3.817119792E0,-2.234134328E1,9.352306856E0,-6.006503162E0,2.495354370E1
3.827128792E0,-2.673636550E1,9.726470186E0,-7.020085836E0,2.930390875E1
3.837138792E0,-2.930475264E1,1.096489292E1,-8.004358757E0,3.229655033E1
3.847147792E0,-2.911193954E1,1.157443241E1,-9.933539972E0,3.286560094E1
3.857156792E0,-2.597478672E1,1.157373425E1,-1.205795621E1,3.088745987E1
3.867165792E0,-2.026047594E1,1.219823208E1,-1.303761392E1,2.700487230E1
3.877174792E0,-1.540480305E1,1.252207895E1,-1.238169666E1,2.339694062E1
3.887183792E0,-1.287290955E1,1.206532955E1,-1.209204782E1,2.138928699E1
3.897192792E0,-1.139610870E1,1.099534054E1,-1.256280598E1,2.021368104E1
3.907201792E0,-9.199864681E0,9.366831340E0,-1.193219196E1,1.774125825E1
3.917210792E0,-6.373334668E0,7.651130213E0,-9.073118681E0,1.347147620E1
3.927219792E0,-2.794853307E0,7.025617302E0,-3.824449458E0,8.473306152E0
3.937228792E0,9.096840835E-1,5.993731089E0,2.415614594E0,6.525912302E0
3.947237792E0,4.350285176E0,4.025922582E0,7.649113508E0,9.676878175E0
3.957246792E0,7.623345414E0,2.169664332E0,1.127595544E1,1.378296084E1
3.967255792E0,9.445957616E0,1.075472528E-1,1.216497078E1,1.540208414E1
3.977265792E0,9.483734722E0,-2.210207171E0,1.020364859E1,1.410463344E1
3.987274792E0,8.755897291E0,-3.925606581E0,7.240063936E0,1.202059276E1
3.997283792E0,7.904426917E0,-5.094978375E0,5.194367008E0,1.074338020E1
4.007292792E0,7.583314791E0,-5.823754284E0,4.165422237E0,1.042945442E1
4.017301792E0,7.650082392E0,-6.147790604E0,3.992693440E0,1.059531457E1
4.027310792E0,8.243123960E0,-6.199571791E0,4.216581573E0,1.114286064E1
4.037319792E0,8.953733740E0,-6.096822764E0,4.194011321E0,1.161595139E1
4.047328792E0,9.099485530E0,-6.050980008E0,3.882657613E0,1.159698349E1
4.057337792E0,8.647461262E0,-5.808359735E0,3.102981107E0,1.086941217E1
4.067346792E0,8.035228547E0,-5.463299752E0,2.173089046E0,9.956648933E0
4.077355792E0,7.556947356E0,-5.225018697E0,1.633745382E0,9.331527084E0
4.087364792E0,7.326738383E0,-5.064303297E0,1.419746645E0,9.019087745E0
4.097373792E0,6.915869157E0,-4.978280230E0,1.436772568E0,8.641575994E0
4.107382792E0,6.528981117E0,-5.022656504E0,1.649798328E0,8.400982520E0
4.117391792E0,6.522448023E0,-5.011130472E0,2.003013423E0,8.465566703E0
4.127401792E0,6.662753132E0,-5.058899301E0,2.290876527E0,8.673687607E0
4.137410792E0,6.957550449E0,-5.121758623E0,2.662193432E0,9.040309371E0
4.147419792E0,7.072140089E0,-5.199407308E0,3.477575961E0,9.441532521E0
4.157428792E0,7.131901556E0,-5.334567452E0,4.578178652E0,1.001405759E1
4.167437792E0,7.294661143E0,-5.387409325E0,5.489556089E0,1.060054180E1
4.177450417E0,7.373060610E0,-5.539756190E0,6.053241127E0,1.103143914E1
4.187459417E0,7.275475259E0,-5.798994834E0,6.099896060E0,1.112517925E1
4.197468417E0,7.244918879E0,-5.785422277E0,5.563846718E0,1.081278645E1
4.207477417E0,7.441707507E0,-5.805643119E0,4.637373232E0,1.051616532E1
4.217486417E0,7.667101298E0,-5.753328080E0,3.586903398E0,1.023479860E1
4.227495417E0,7.875314215E0,-5.587181786E0,2.828314583E0,1.006163693E1
4.237504417E0,7.837799649E0,-5.629492239E0,2.239932953E0,9.906542578E0
4.247513417E0,7.159893347E0,-5.872690802E0,1.862717670E0,9.445754978E0
4.257522417E0,6.218436078E0,-6.042852963E0,1.847752891E0,8.865619546E0
4.267532417E0,5.627788360E0,-6.201983768E0,2.124992774E0,8.640150390E0
4.277541417E0,5.213176332E0,-6.046374156E0,2.390877948E0,8.333795370E0
4.287550417E0,4.840601106E0,-5.707414573E0,2.462878223E0,7.878563912E0
4.297559417E0,4.095527253E0,-5.054519151E0,2.345660260E0,6.915463064E0
4.307568417E0,3.394105203E0,-3.962905970E0,1.814840375E0,5.524329773E0
4.317577417E0,2.419807048E0,-2.630283715E0,1.010390971E0,3.714128227E0
4.327586417E0,8.931768090E-1,-1.250551613E0,4.571674794E-2,1.537444038E0
4.337595417E0,-1.549161315E0,1.355562344E0,-8.203362894E-1,2.215942615E0
4.347604417E0,-4.671935247E0,4.729146743E0,-1.873350539E0,6.906609162E0
4.357613417E0,-8.100325014E0,7.185453866E0,-3.201381852E0,1.129136211E1
4.367622417E0,-1.191396852E1,9.309240943E0,-4.164870552E0,1.568281734E1
4.377631417E0,-1.435057579E1,1.097243700E1,-4.697372096E0,1.866544143E1
4.387640417E0,-1.523990806E1,1.184154374E1,-5.802442937E0,2.015304691E1
4.397649417E0,-1.547292077E1,1.244013841E1,-7.340179378E0,2.116711020E1
4.407659417E0,-1.590229585E1,1.304665255E1,-8.298015867E0,2.218006365E1
4.417668417E0,-1.720711138E1,1.328260992E1,-8.308606929E0,2.327112712E1
4.427677417E0,-1.888524824E1,1.184667409E1,-8.142817315E0,2.373397905E1
4.437686417E0,-2.066490211E1,9.443185451E0,-7.902277481E0,2.405530961E1
4.447695417E0,-2.232506463E1,7.111078452E0,-7.482777765E0,2.459609544E1
4.457704417E0,-2.382580165E1,5.480054948E0,-7.443416648E0,2.555590495E1
4.467713417E0,-2.441354505E1,4.094665665E0,-7.836592784E0,2.596535491E1
4.477722417E0,-2.346972259E1,2.404690241E0,-8.148659853E0,2.496018972E1
4.487731417E0,-2.064610449E1,1.415031743E0,-6.909590417E0,2.181757056E1
4.497740417E0,-1.629128772E1,1.050475096E0,-3.987835574E0,1.680512975E1
4.507749417E0,-1.139159465E1,5.107308984E-1,-6.017419329E-1,1.141890398E1
4.517758417E0,-6.367531891E0,3.226557916E-1,2.914666264E0,7.010338692E0
4.527767417E0,-8.922856933E-1,4.369831833E-1,5.078830120E0,5.175098400E0
4.537776417E0,4.939712580E0,2.147638455E-1,5.644252950E0,7.503630804E0
4.547786417E0,9.991644924E0,-1.842571673E-1,5.192718093E0,1.126193767E1
4.557795417E0,1.281112203E1,-7.647248831E-1,4.220752392E0,1.351015923E1
4.567804417E0,1.256354507E1,-1.872808794E0,3.225551903E0,1.310550505E1
4.577813417E0,9.998884946E0,-3.037784652E0,2.596957509E0,1.076800929E1
4.587822417E0,7.663486549E0,-4.178186124E0,2.335739290E0,9.035593141E0
4.597831417E0,6.300628635E0,-5.260819445E0,2.660036395E0,8.628437636E0
4.607840417E0,5.485588169E0,-5.680478790E0,3.719568535E0,8.728957952E0
4.617849417E0,5.433926849E0,-5.871067030E0,4.879974209E0,9.370759700E0
4.627858417E0,6.090113668E0,-5.898464743E0,5.650449829E0,1.018866793E1
4.637867417E0,7.182269472E0,-5.700162857E0,6.013580632E0,1.096540028E1
4.647876417E0,8.293533391E0,-5.261039300E0,5.760846430E0,1.138633313E1
4.657885417E0,8.604647949E0,-4.854491166E0,5.143169957E0,1.113814383E1
4.667894417E0,8.364093497E0,-4.583011668E0,4.320603540E0,1.047041885E1
4.677903417E0,7.623035511E0,-4.310076213E0,3.530918355E0,9.442182576E0
4.687912417E0,7.157283735E0,-4.067498332E0,2.732737458E0,8.674047911E0
4.697922417E0,6.934803026E0,-3.885176008E0,1.712384001E0,8.131318749E0
4.707931417E0,6.755188256E0,-3.784416496E0,9.464554685E-1,7.800650905E0
4.717940417E0,6.978885185E0,-3.791519109E0,5.745094031E-1,7.963072060E0
4.727949417E0,7.581570566E0,-3.775256833E0,6.355996504E-1,8.493336407E0
4.737958417E0,8.030066625E0,-3.886670849E0,1.388125195E0,9.028569756E0
4.747967417E0,8.220790520E0,-4.086874543E0,2.585372421E0,9.537719374E0
4.757976417E0,8.364488184E0,-4.167408244E0,3.793697781E0,1.008583645E1
4.767985417E0,8.464686071E0,-4.195528674E0,4.720026256E0,1.056087208E1
4.777994417E0,8.470009961E0,-4.260924226E0,5.205684879E0,1.081645501E1
4.788003417E0,8.177636899E0,-4.276748253E0,5.090768380E0,1.053946126E1
4.798012417E0,7.832923656E0,-4.248870483E0,4.407721206E0,9.941609508E0
4.808021417E0,7.588664993E0,-4.508296239E0,3.720966020E0,9.579047942E0
4.818030417E0,7.492202307E0,-4.759077179E0,3.089357971E0,9.398193639E0
4.828039417E0,7.342796592E0,-4.789967726E0,2.312648635E0,9.066906656E0
4.838048417E0,7.287809376E0,-4.762764433E0,1.564378109E0,8.845528215E0
4.848058417E0,6.919685050E0,-4.688460355E0,1.126989129E0,8.434085973E0
4.858067417E0,5.750221455E0,-4.408362646E0,8.074510726E-1,7.290451648E0
4.868076417E0,3.798042555E0,-4.100421957E0,6.654537794E-1,5.628624717E0
4.878085417E0,1.458505499E0,-3.458374289E0,6.334958223E-1,3.806429820E0
4.888094417E0,-6.674362779E-2,-2.633536229E0,5.960999545E-1,2.700981846E0
4.898103417E0,-9.750658947E-1,-1.140557300E0,4.686920491E-1,1.572035843E0
4.908112417E0,-1.092292628E0,1.122400526E0,-3.415434676E-1,1.602977875E0
4.918121417E0,-6.423376894E-1,3.210770142E0,-1.649079705E0,3.666211462E0
4.928130417E0,-1.047725151E0,5.013852936E0,-3.302555640E0,6.094532222E0
4.938139417E0,-3.393878916E0,5.680258934E0,-5.394551114E0,8.537267559E0
4.948148417E0,-8.496736414E0,5.196979544E0,-7.512771642E0,1.247577107E1
4.958157417E0,-1.614086926E1,4.204146008E0,-8.347696735E0,1.865171695E1
4.968166417E0,-2.258854953E1,3.389180678E0,-7.842272769E0,2.415016268E1
4.978175417E0,-2.546226657E1,3.431036510E0,-7.348265492E0,2.672257540E1
4.988184417E0,-2.708646169E1,4.949277456E0,-6.960122055E0,2.840096923E1
4.998194417E0,-2.809140628E1,6.256632430E0,-7.319204831E0,2.969584677E1
5.008203417E0,-2.742764439E1,6.385483428E0,-8.007124490E0,2.927736528E1
5.018212417E0,-2.524062435E1,6.828635716E0,-7.626276038E0,2.723746445E1
5.028221417E0,-2.157200173E1,7.983509924E0,-6.199596934E0,2.382273476E1
5.038230417E0,-1.804075710E1,8.522257757E0,-5.452084208E0,2.068388301E1
5.048239417E0,-1.498231599E1,7.555467426E0,-6.135090451E0,1.786600726E1
5.058248417E0,-1.136400281E1,6.204816159E0,-6.833539191E0,1.464027190E1
5.068257417E0,-7.674068255E0,6.115156124E0,-6.153894512E0,1.158261092E1
5.078266417E0,-3.290349870E0,6.257282640E0,-4.232634519E0,8.239853353E0
5.088275417E0,1.297313551E0,5.062643273E0,-1.245168082E0,5.372506204E0
5.098284417E0,5.325597239E0,3.830913847E0,2.468781572E0,7.009477106E0
5.108293417E0,9.153022052E0,2.742059966E0,5.430471729E0,1.099030158E1
5.118302417E0,1.232462082E1,1.557295961E0,6.392750348E0,1.397099517E1
5.128311417E0,1.374741094E1,1.645505887E-1,5.747776734E0,1.490152079E1
5.138320417E0,1.321988099E1,-1.552550361E0,4.483937323E0,1.404568830E1
5.148329417E0,1.112268822E1,-3.126199815E0,3.227951600E0,1.199612396E1
5.158339417E0,8.502025221E0,-4.286518950E0,1.940307005E0,9.717173913E0
5.168348417E0,6.078520979E0,-5.122838604E0,9.939711124E-1,8.011234064E0
5.178356000E0,4.522749386E0,-5.484000065E0,5.897232735E-1,7.132831994E0
5.188365000E0,4.070249155E0,-5.412923650E0,9.080994880E-1,6.833104368E0
5.198374000E0,5.024148713E0,-5.369436153E0,1.672032658E0,7.541127774E0
5.208383000E0,6.610498905E0,-5.093726487E0,2.390344098E0,8.680926805E0
5.218392000E0,8.297812968E0,-4.764089119E0,3.035530550E0,1.003816173E1
5.228401000E0,9.282886958E0,-4.535161271E0,3.441772875E0,1.088969598E1
5.238410000E0,9.459061226E0,-4.459322299E0,3.688450823E0,1.108891627E1
5.248419000E0,9.068316947E0,-4.648834652E0,3.678947928E0,1.083423711E1
5.258428000E0,8.110130210E0,-4.985061246E0,3.553723081E0,1.016139731E1
5.268437000E0,7.138872022E0,-5.378794037E0,3.550717904E0,9.617822866E0
5.278446000E0,6.622077561E0,-5.654727652E0,3.746180968E0,9.479542599E0
5.288455000E0,6.424593700E0,-5.690914316E0,4.046140207E0,9.488580533E0
5.298465000E0,6.458988776E0,-5.587016310E0,4.242832356E0,9.535979953E0
5.308474000E0,6.825840163E0,-5.513936055E0,4.274946726E0,9.760673863E0
5.318483000E0,7.329039847E0,-5.297192634E0,4.026423396E0,9.898846410E0
5.328492000E0,7.459342709E0,-5.177460369E0,3.763463291E0,9.829117227E0
5.338501000E0,7.596395012E0,-5.158249342E0,3.662815460E0,9.885796404E0
5.348510000E0,7.492347318E0,-5.040260131E0,3.551188605E0,9.703114502E0
5.358519000E0,6.982699909E0,-5.110512673E0,3.281514435E0,9.254392189E0
5.368528000E0,6.566469371E0,-5.289266149E0,3.183795182E0,9.012846839E0
5.378537000E0,6.070658228E0,-5.408575076E0,3.226657319E0,8.747393505E0
5.388546000E0,5.364392345E0,-5.461994069E0,3.065678794E0,8.246724859E0
5.398555000E0,4.381287113E0,-5.488238711E0,2.636306932E0,7.501103596E0
5.408564000E0,3.294392050E0,-5.275528116E0,2.152596894E0,6.581632720E0
5.418573000E0,2.299028715E0,-4.987068011E0,1.534793829E0,5.701927084E0
5.428582000E0,1.619527293E0,-4.572416221E0,7.207769179E-1,4.904016529E0
5.438591000E0,1.424383487E0,-3.621860685E0,-3.332603019E-1,3.906124111E0
5.448600000E0,1.149390689E0,-2.310127316E0,-1.440910057E0,2.955335677E0
5.458610000E0,9.651998878E-3,-5.804273701E-1,-2.160752883E0,2.237373932E0
5.468619000E0,-2.004716132E0,1.357087297E0,-2.290993764E0,3.333050424E0
5.478628000E0,-4.836202245E0,3.283256612E0,-2.304897858E0,6.283405150E0
5.488637000E0,-8.568227981E0,5.028402563E0,-2.468155335E0,1.023675504E1
5.498646000E0,-1.310282441E1,6.422398655E0,-3.183960950E0,1.493548859E1
5.508655000E0,-1.693347689E1,7.371178976E0,-4.064192024E0,1.891017123E1
5.518664000E0,-1.889693682E1,7.728972441E0,-4.761641183E0,2.096436173E1
5.528673000E0,-1.909476333E1,8.293015913E0,-5.412103286E0,2.150988056E1
5.538682000E0,-1.800795890E1,9.606979995E0,-6.149433671E0,2.131657061E1
5.548691000E0,-1.717135916E1,1.078439990E1,-7.195831504E0,2.151601375E1
5.558700000E0,-1.795369907E1,1.033871226E1,-8.527796824E0,2.240418711E1
5.568709000E0,-1.980664780E1,9.205831765E0,-9.265787945E0,2.372562880E1
5.578718000E0,-2.025681558E1,8.587503912E0,-8.174750129E0,2.347147930E1
5.588727000E0,-1.818761694E1,8.004888514E0,-5.795212855E0,2.069908554E1
5.598736000E0,-1.485067645E1,6.673417869E0,-4.342470372E0,1.685034558E1
5.608745000E0,-1.165540465E1,5.038780201E0,-4.232653815E0,1.338480937E1
5.618755000E0,-8.496335880E0,3.865078543E0,-3.728822631E0,1.005140158E1
5.628764000E0,-5.085896480E0,3.564155098E0,-2.567039061E0,6.720062061E0
5.638773000E0,-1.125180293E0,3.043503814E0,-1.289602243E0,3.491707333E0
5.648782000E0,2.731648414E0,2.176987385E0,-1.833999655E-1,3.497829710E0
5.658791000E0,5.777106952E0,1.629183969E0,2.936790374E-1,6.009613342E0
5.668800000E0,8.383746573E0,1.173688794E0,-1.925043726E-1,8.467692125E0
5.678809000E0,1.028761929E1,4.828361714E-1,-7.109433630E-1,1.032345300E1
5.688818000E0,1.154551442E1,-5.433554381E-1,-9.674425873E-1,1.159871042E1
5.698827000E0,1.149374785E1,-2.062191923E0,-2.899353576E-1,1.168087915E1
5.708836000E0,1.022420623E1,-3.530347667E0,1.024090705E0,1.086492105E1
5.718845000E0,9.044178472E0,-4.451861252E0,2.678979912E0,1.043039626E1
5.728854000E0,8.160782300E0,-5.190032467E0,4.264698603E0,1.056988453E1
5.738863000E0,7.577303853E0,-5.924222313E0,5.210968423E0,1.093920178E1
5.748872000E0,6.950602788E0,-6.357416208E0,5.478015440E0,1.089661751E1
5.758881000E0,6.274278742E0,-6.730315370E0,5.506424721E0,1.072307940E1
5.768891000E0,5.630645310E0,-6.956424276E0,5.465845045E0,1.048672815E1
5.778900000E0,5.255796686E0,-6.985365654E0,5.377664355E0,1.026343052E1
5.788909000E0,4.987366219E0,-7.049349396E0,4.931007246E0,9.943941933E0
5.798918000E0,4.664728553E0,-7.003711293E0,3.916385522E0,9.281688419E0
5.808927000E0,4.523362759E0,-6.828182557E0,2.716337772E0,8.629216568E0
5.818936000E0,4.849926245E0,-6.665872622E0,1.667962996E0,8.410573283E0
5.828945000E0,5.408613083E0,-6.443046927E0,9.960357642E-1,8.471011535E0
5.838954000E0,5.676758791E0,-6.243723532E0,6.293738276E-1,8.462020168E0
5.848963000E0,5.552846936E0,-6.029572182E0,8.482523587E-1,8.240714888E0
5.858972000E0,5.435336612E0,-5.860393522E0,1.905985604E0,8.217047977E0
5.868981000E0,5.614737375E0,-5.748630427E0,3.333944663E0,8.699839918E0
5.878990000E0,5.804604653E0,-5.512423380E0,4.541250269E0,9.203434180E0
5.888999000E0,5.913540035E0,-5.338973914E0,5.433493570E0,9.643518578E0
5.899008000E0,6.098635985E0,-5.181464542E0,5.928004292E0,9.959024579E0
5.909017000E0,6.282820355E0,-4.898071049E0,5.917954098E0,9.924067328E0
5.919027000E0,6.328929158E0,-4.549431986E0,5.422011977E0,9.494782229E0
5.929036000E0,6.028958809E0,-4.010304669E0,4.528324707E0,8.540293468E0
5.939045000E0,5.303973650E0,-3.418281686E0,3.416579561E0,7.175639488E0
5.949054000E0,4.371197743E0,-2.833541994E0,2.428255982E0,5.747413075E0
5.959063000E0,3.424985518E0,-2.283362271E0,1.630759209E0,4.427600327E0
5.969072000E0,2.783241906E0,-1.703210304E0,7.857508859E-1,3.356302326E0
5.979081000E0,2.309939620E0,-8.565106738E-1,1.026048937E-1,2.465757358E0
5.989090000E0,1.671164054E0,5.502031124E-1,-4.650720379E-1,1.819836466E0
5.999099000E0,6.666650301E-1,2.017435580E0,-9.126813662E-1,2.312460996E0
6.009108000E0,-1.339687738E0,3.040879583E0,-1.351949349E0,3.587405597E0
6.019117000E0,-4.537953901E0,3.852353248E0,-1.998649061E0,6.279191766E0
6.029126000E0,-7.979807467E0,4.801269810E0,-2.765677455E0,9.714859278E0
6.039135000E0,-1.066513307E1,5.415065485E0,-3.660327470E0,1.250863681E1
6.049144000E0,-1.213993067E1,5.554191796E0,-4.687859554E0,1.414931059E1
6.059153000E0,-1.271728942E1,5.108855572E0,-5.390910637E0,1.472724594E1
6.069162000E0,-1.390779656E1,5.302260416E0,-6.020902516E0,1.605590352E1
6.079171000E0,-1.569865838E1,5.830831754E0,-7.122704471E0,1.819833489E1
6.089181000E0,-1.776569823E1,4.901896590E0,-8.270258549E0,2.020014357E1
6.099190000E0,-2.049395292E1,3.525627502E0,-8.541736001E0,2.248095659E1
6.109199000E0,-2.272957267E1,2.621755843E0,-7.194259188E0,2.398467100E1
6.119208000E0,-2.361769924E1,2.143674628E0,-5.277886882E0,2.429500254E1
6.129217000E0,-2.316779108E1,2.260078073E0,-4.759418364E0,2.375934678E1
6.139226000E0,-2.061229589E1,2.511590207E0,-5.344122387E0,2.144141952E1
6.149235000E0,-1.610776935E1,2.516612381E0,-6.003201240E0,1.737331276E1
6.159244000E0,-1.063519299E1,2.521993573E0,-6.340842276E0,1.263622025E1
6.169253000E0,-3.542710435E0,3.146860367E0,-6.010817238E0,7.653982706E0
6.179262125E0,3.925608335E0,3.921031719E0,-4.826306418E0,7.353782984E0
6.189271125E0,1.013683830E1,4.336327288E0,-3.492467065E0,1.156531674E1
6.199280125E0,1.410226559E1,3.481624573E0,-1.857069844E0,1.464391727E1
6.209289125E0,1.538289119E1,1.702567111E0,5.717463014E-1,1.548738099E1
6.219298125E0,1.438674667E1,-3.060613936E-1,3.692362903E0,1.485616697E1
6.229307125E0,1.228030360E1,-2.298147540E0,7.218003561E0,1.442868373E1
6.239316125E0,9.697166864E0,-4.021381634E0,9.960972769E0,1.447161131E1
6.249326125E0,7.013425273E0,-5.311071585E0,1.138846639E1,1.439071861E1
6.259335125E0,4.419372953E0,-6.249786510E0,1.141200143E1,1.374134147E1
6.269344125E0,2.448922089E0,-6.736672463E0,9.946726613E0,1.226039745E1
6.279353125E0,2.399081007E0,-6.816223247E0,7.767539506E0,1.060901310E1
6.289362125E0,4.284903949E0,-6.911290203E0,5.245902028E0,9.677077152E0
6.299371125E0,6.628104286E0,-6.849825441E0,2.556728666E0,9.868573173E0
6.309380125E0,8.298441544E0,-6.453831532E0,-1.300832990E-1,1.051346732E1
6.319389125E0,8.729293045E0,-6.222975857E0,-2.234057086E0,1.095066193E1
6.329398125E0,7.767933024E0,-6.153875801E0,-3.083016958E0,1.037863018E1
6.339407125E0,6.483272848E0,-6.201648138E0,-2.862993542E0,9.417536751E0
6.349416125E0,5.143724273E0,-6.267952639E0,-1.722080146E0,8.289191138E0
6.359425125E0,3.708254465E0,-6.217052042E0,-1.964918813E-1,7.241650112E0
6.369434125E0,2.850243396E0,-6.407387683E0,1.138808398E0,7.104603360E0
6.379443125E0,2.819208714E0,-6.440867085E0,2.114142680E0,7.341818975E0
6.389452125E0,3.412252622E0,-6.269816147E0,3.030131232E0,7.754724866E0
6.399461125E0,4.296214219E0,-6.075136610E0,3.676333638E0,8.299407838E0
6.409470125E0,5.512864845E0,-5.818797015E0,4.454769365E0,9.170335195E0
6.419480125E0,6.685222812E0,-5.359884142E0,5.307408305E0,1.007914406E1
6.429489125E0,7.624915976E0,-4.959225909E0,5.713447731E0,1.074135700E1
6.439498125E0,7.771201617E0,-4.763890314E0,5.682010760E0,1.074111129E1
6.449507125E0,6.964577633E0,-4.578266945E0,5.438929142E0,9.952277128E0
6.459516125E0,5.624161332E0,-4.397811930E0,5.160270724E0,8.809105199E0
6.469525125E0,3.953452776E0,-3.985641114E0,4.824430046E0,7.402043583E0
6.479534125E0,2.187367362E0,-3.064315808E0,3.924240671E0,5.438223257E0
6.489543125E0,9.611559534E-1,-1.699328338E0,1.930998238E0,2.745959170E0
6.499552125E0,7.664050806E-1,9.791747332E-3,-4.419559479E-1,8.847585465E-1
6.509561125E0,8.232727611E-1,1.880472740E0,-1.799366889E0,2.729775992E0
6.519570125E0,6.201054060E-1,3.576603820E0,-1.902493646E0,4.098305464E0
6.529579125E0,-6.183050483E-1,4.753940692E0,-1.683175989E0,5.080879318E0
6.539588125E0,-3.086996573E0,5.320508407E0,-2.063060820E0,6.487956342E0
6.549597125E0,-6.792847833E0,5.185019649E0,-2.942256351E0,9.037924700E0
6.559606125E0,-1.155385956E1,5.211843751E0,-4.023867286E0,1.329836434E1
6.569616125E0,-1.709068396E1,5.994933861E0,-5.045765285E0,1.880134191E1
6.579625125E0,-2.291187716E1,7.596855773E0,-6.416974193E0,2.497686711E1
6.589634125E0,-2.784559167E1,8.544752580E0,-8.086331457E0,3.022876988E1
6.599643125E0,-3.054298709E1,7.989864678E0,-9.657746106E0,3.301490660E1
6.609652125E0,-2.820868973E1,7.460777031E0,-1.062393008E1,3.105255642E1
6.619661125E0,-2.096957713E1,8.251094885E0,-1.097022324E1,2.506291144E1
6.629670125E0,-1.273532925E1,8.793693109E0,-1.151859617E1,1.929237433E1
6.639679125E0,-6.427950001E0,8.104726798E0,-1.258308763E1,1.628923669E1
6.649688125E0,-3.100734606E0,6.515374061E0,-1.281430291E1,1.470615563E1
6.659697125E0,-2.377997117E0,4.662110170E0,-1.107305238E1,1.224755610E1
6.669706125E0,-2.172913629E0,2.935706300E0,-7.146354704E0,8.025603446E0
6.679715125E0,-8.370084554E-1,1.323466392E0,-2.125293613E0,2.639890033E0
6.689724125E0,1.233650821E0,3.783733249E-1,2.908315311E0,3.181722594E0
6.699733125E0,4.505136988E0,2.298540473E-1,6.081824656E0,7.572165034E0
6.709742125E0,8.376426444E0,-1.179973966E-1,6.891391543E0,1.084756750E1
6.719751125E0,1.048711927E1,-1.040947643E0,6.431905643E0,1.234636192E1
6.729760125E0,1.068508143E1,-2.418903653E0,5.533364013E0,1.227355602E1
6.739770125E0,9.697349882E0,-3.822220792E0,4.454458293E0,1.133535025E1
6.749779125E0,8.049943065E0,-4.948039600E0,3.499397477E0,1.007623253E1
6.759788125E0,6.472636762E0,-5.874219264E0,2.832986509E0,9.188432466E0
6.769797125E0,5.165106372E0,-6.500725032E0,2.535544496E0,8.681401711E0
6.779806125E0,4.411464009E0,-6.887586175E0,2.793730349E0,8.643193119E0
6.789815125E0,4.204828085E0,-7.059653944E0,3.821798915E0,9.062308756E0
6.799824125E0,4.583801919E0,-7.106518793E0,5.201612293E0,9.928273759E0
6.809833125E0,5.224431052E0,-7.240360975E0,5.958476472E0,1.073410214E1
6.819842125E0,5.807501364E0,-6.884710515E0,5.967114564E0,1.080429392E1
6.829851125E0,5.992121935E0,-6.369389552E0,5.703127395E0,1.044032139E1
6.839860125E0,5.708311536E0,-6.108514856E0,4.811702704E0,9.646307960E0
6.849869125E0,5.066320002E0,-5.505733581E0,3.567816625E0,8.289150505E0
6.859878125E0,4.752334462E0,-4.995337728E0,2.155032259E0,7.223727977E0
6.869887125E0,4.772257095E0,-4.918549168E0,1.025405159E0,6.929503549E0
6.879896125E0,5.217482221E0,-4.891876509E0,8.980633271E-1,7.208265689E0
6.889905125E0,6.081661518E0,-4.910660105E0,1.404836684E0,7.941961697E0
6.899914125E0,7.285426635E0,-4.876270291E0,1.812225208E0,8.952073135E0
6.909924125E0,8.441718208E0,-4.610603802E0,1.861655231E0,9.797246242E0
6.919933125E0,9.012744425E0,-4.316214620E0,1.708445463E0,1.013795130E1
6.929942125E0,8.776202917E0,-4.103684118E0,1.504445172E0,9.804351904E0
6.939951125E0,8.165108070E0,-3.869194983E0,1.567444243E0,9.170416625E0
6.949960125E0,7.299529535E0,-3.424812441E0,2.230421434E0,8.365838359E0
6.959969125E0,6.260997376E0,-2.518367130E0,3.478603317E0,7.592294922E0
6.969978125E0,5.545066046E0,-1.569852272E0,4.927004242E0,7.582055421E0
6.979987125E0,4.825998269E0,-3.514504051E-1,5.995379419E0,7.704437102E0
6.989996125E0,4.251781812E0,1.323814886E0,6.550174935E0,7.920538246E0
7.000005125E0,3.674598477E0,2.965110193E0,6.148012798E0,7.751942582E0
7.010014125E0,3.424973824E0,4.553420664E0,3.614161656E0,6.747314274E0
7.020023125E0,2.423835195E0,5.441974956E0,-4.227500372E-1,5.972335060E0
7.030032125E0,1.167279661E-2,5.688374870E0,-5.058985255E0,7.612560458E0
7.040041125E0,-3.964714513E0,5.482134218E0,-9.507827590E0,1.166925628E1
7.050050125E0,-9.790816455E0,4.663246284E0,-1.200104175E1,1.617501023E1
7.060059125E0,-1.576915709E1,3.441664409E0,-1.208993229E1,2.016625478E1
7.070068125E0,-2.066642239E1,2.807169005E0,-1.090430992E1,2.353476550E1
7.080078125E0,-2.412390440E1,3.155106111E0,-9.349302557E0,2.606390063E1
7.090087125E0,-2.662086428E1,3.818808357E0,-7.943330197E0,2.804193658E1
7.100096125E0,-2.777901995E1,2.839754076E0,-7.013707108E0,2.879114864E1
7.110105125E0,-2.766326145E1,1.346171715E0,-6.656275002E0,2.848463111E1
7.120114125E0,-2.656879366E1,4.147003216E-1,-7.606939881E0,2.763943392E1
7.130123125E0,-2.498555711E1,-8.322391739E-1,-9.259261283E0,2.665904360E1
7.140132125E0,-2.367750456E1,-2.015039976E0,-9.256591444E0,2.550233506E1
7.150141125E0,-2.151074630E1,-2.220084872E0,-7.696452566E0,2.295378760E1
7.160150125E0,-1.686945338E1,-1.711046158E0,-5.123608682E0,1.771320136E1
7.170159125E0,-1.013808961E1,-8.021847779E-1,-1.129305503E0,1.023228676E1
7.180165875E0,-2.765582730E0,1.112160005E0,3.442210246E0,4.553477692E0
7.190174875E0,4.915609188E0,3.054767598E0,6.964322695E0,9.055197919E0
7.200183875E0,1.221011129E1,4.457818103E0,9.029824727E0,1.582708737E1
7.210192875E0,1.762885818E1,4.959901847E0,9.110395850E0,2.045425578E1
7.220201875E0,2.086140131E1,4.546351672E0,7.167611672E0,2.252203443E1
7.230210875E0,2.176321270E1,3.622072939E0,4.649760851E0,2.254721968E1
7.240219875E0,2.031234542E1,2.121255233E0,2.902318114E0,2.062800404E1
7.250229875E0,1.674297109E1,1.022011435E-1,2.038697226E0,1.686694437E1
7.260238875E0,1.288915780E1,-1.441046590E0,1.975753119E0,1.311909312E1
7.270247875E0,1.035625156E1,-2.305360081E0,2.161109855E0,1.082760488E1
7.280256875E0,9.101473584E0,-3.145956972E0,2.296636620E0,9.899919516E0
7.290265875E0,8.778928304E0,-3.868713757E0,1.928431603E0,9.785467631E0
7.300274875E0,9.329965230E0,-4.757247585E0,5.969539404E-1,1.048980504E1
7.310283875E0,9.604914173E0,-5.533098550E0,-8.352420115E-1,1.111607777E1
7.320292875E0,9.231029756E0,-6.103192136E0,-1.884140114E0,1.122545538E1
7.330301875E0,8.380161061E0,-6.469702045E0,-2.194081135E0,1.081194413E1
7.340310875E0,7.183808459E0,-6.551087101E0,-1.501763785E0,9.837638977E0
7.350319875E0,6.009375315E0,-6.495480080E0,1.349221623E-1,8.849974979E0
7.360328875E0,5.661029781E0,-6.280178583E0,1.650802295E0,8.614699613E0
7.370337875E0,5.954383421E0,-6.058926959E0,2.572790090E0,8.876064819E0
7.380346875E0,6.378281413E0,-5.721031569E0,3.186529047E0,9.141479277E0
7.390355875E0,7.054021906E0,-5.436615399E0,3.428753464E0,9.543184079E0
7.400364875E0,7.940859164E0,-5.090555542E0,3.093301041E0,9.926706972E0
7.410373875E0,8.958848884E0,-4.522656708E0,2.552624213E0,1.035525410E1
7.420383875E0,9.744744489E0,-3.959963358E0,2.064716166E0,1.071934736E1
7.430392875E0,1.015887529E1,-3.470957790E0,1.303111650E0,1.081426813E1
7.440401875E0,9.925517592E0,-3.163071188E0,3.412224555E-1,1.042292433E1
7.450410875E0,9.141205414E0,-3.185876791E0,-5.328649485E-1,9.695122093E0
7.460419875E0,8.555608521E0,-3.447113137E0,-1.017168771E0,9.279852286E0
7.470428875E0,8.537451746E0,-3.449065230E0,-9.359895372E-1,9.255280098E0
7.480437875E0,8.364118055E0,-3.105388405E0,-7.597182047E-1,8.954277176E0
7.490446875E0,7.700346227E0,-2.648790152E0,-7.897939432E-1,8.181393265E0
7.500455875E0,6.371307439E0,-1.824854025E0,-7.220633054E-1,6.666710291E0
7.510464875E0,4.113571175E0,-6.255529645E-1,-7.176930964E-1,4.222305970E0
7.520473875E0,1.221337754E0,8.689477015E-1,-1.276814382E0,1.969007614E0
7.530482875E0,-9.644988066E-1,2.848493617E0,-2.399126616E0,3.847074518E0
7.540491875E0,-2.556998515E0,5.128399891E0,-3.349370495E0,6.637545447E0
7.550500875E0,-4.403311236E0,7.201686906E0,-3.420455096E0,9.107851404E0
7.560509875E0,-6.442973253E0,8.030880557E0,-2.502796580E0,1.059579811E1
7.570518875E0,-9.694577717E0,8.230943041E0,-8.197936678E-1,1.274383467E1
7.580527875E0,-1.411771628E1,8.309186972E0,8.761656506E-1,1.640488242E1
7.590536875E0,-1.862764798E1,7.766588749E0,1.397434547E0,2.023022475E1
7.600546875E0,-2.369042457E1,6.897331730E0,4.901984006E-2,2.467411203E1
7.610555875E0,-2.926298481E1,5.881432389E0,-1.880879560E0,2.990737760E1
7.620564875E0,-3.421888599E1,4.041605984E0,-3.887792637E0,3.467537554E1
7.630573875E0,-3.852765711E1,2.483732610E0,-6.373113059E0,3.913011449E1
7.640582875E0,-3.907918988E1,8.409066479E-1,-7.970340825E0,3.989256244E1
7.650591875E0,-3.530730309E1,-8.223948017E-1,-8.977141314E0,3.643996502E1
7.660600875E0,-2.778907716E1,-2.027695105E0,-1.011122633E1,2.964087136E1
7.670609875E0,-1.824254568E1,-2.473069628E0,-1.031900363E1,2.110422664E1
7.680618875E0,-1.029154978E1,-2.071553316E0,-8.558071368E0,1.354429458E1
7.690627875E0,-4.525287078E0,-1.695590213E0,-6.246022657E0,7.897217760E0
7.700636875E0,3.842603016E-1,-1.727115184E0,-4.217601328E0,4.573701324E0
7.710645875E0,5.020232833E0,-1.356152328E0,-1.819961075E0,5.509459606E0
7.720654875E0,9.331022991E0,-8.072616228E-1,9.883735728E-1,9.417884248E0
7.730663875E0,1.251415481E1,-6.862640199E-1,3.660358168E0,1.305654053E1
7.740672875E0,1.367785714E1,-1.012157707E0,5.709441218E0,1.485617576E1
7.750681875E0,1.372353910E1,-1.572635839E0,7.115856797E0,1.553847247E1
7.760690875E0,1.440978470E1,-2.080699823E0,7.708020698E0,1.647376065E1
7.770699875E0,1.674282608E1,-2.398880155E0,6.996482381E0,1.830375964E1
7.780709875E0,1.729420565E1,-2.997625683E0,5.376439948E0,1.835705356E1
7.790718875E0,1.449198486E1,-3.867271834E0,3.668347803E0,1.544118493E1
7.800727875E0,1.133474334E1,-5.001626408E0,2.450540013E0,1.262924462E1
7.810736875E0,8.832882902E0,-6.115747277E0,1.579513042E0,1.085896158E1
7.820745875E0,6.715378073E0,-6.592498251E0,7.776329041E-1,9.442565795E0
7.830754875E0,5.103316505E0,-6.970409061E0,-5.780089617E-2,8.639084603E0
7.840763875E0,4.073806016E0,-7.506049098E0,-6.463979959E-1,8.564724099E0
7.850772875E0,3.550403616E0,-7.704177323E0,-8.069215342E-1,8.521199236E0
7.860781875E0,3.746137406E0,-7.377475843E0,-7.176416409E-1,8.305161335E0
7.870790875E0,4.544023311E0,-6.727557823E0,-2.349679856E-1,8.121785030E0
7.880799875E0,5.269411343E0,-6.040353863E0,7.844566047E-1,8.054063748E0
7.890808875E0,6.161343865E0,-5.574374045E0,2.104439811E0,8.571141764E0
7.900817875E0,6.960801501E0,-5.178963103E0,3.521176894E0,9.363391644E0
7.910826875E0,7.493948286E0,-4.648487327E0,4.738534448E0,1.001106408E1
7.920835875E0,8.124766960E0,-4.378047756E0,5.316774960E0,1.065116126E1
7.930844875E0,8.862828248E0,-4.147781480E0,5.296556457E0,1.112687405E1
7.940853875E0,9.780723576E0,-3.981722894E0,4.495784951E0,1.147731472E1
7.950863875E0,1.051866616E1,-3.959433893E0,3.017943295E0,1.163732943E1
7.960872875E0,1.056809619E1,-3.864083347E0,1.267748859E0,1.132355882E1
7.970881875E0,9.906921108E0,-4.049994984E0,-4.945656129E-1,1.071420274E1
7.980890875E0,8.315725329E0,-4.290617264E0,-1.811520034E0,9.531122131E0
7.990899875E0,5.990598736E0,-4.245156332E0,-2.415449703E0,7.729361084E0
8.000908875E0,3.827894345E0,-4.078369768E0,-2.421273383E0,6.094951999E0
8.010917875E0,1.847858140E0,-3.701775166E0,-2.145157481E0,4.660409822E0
8.020926875E0,3.672630304E-1,-3.366114582E0,-1.206646771E0,3.594663537E0
8.030935875E0,-4.816526949E-1,-2.805679427E0,9.053936890E-1,2.987233519E0
8.040944875E0,-1.341070604E0,-1.415286389E0,2.984484358E0,3.564919748E0
8.050953875E0,-2.444815004E0,4.420810783E-1,4.066865956E0,4.765706116E0
8.060962875E0,-3.849616751E0,2.185923100E0,3.878106140E0,5.885364573E0
8.070971875E0,-5.932518927E0,4.015571256E0,2.568055015E0,7.610157679E0
8.080980875E0,-7.958292637E0,5.353881390E0,1.058704029E0,9.649835328E0
8.090989875E0,-9.307890821E0,6.328353792E0,-3.274323821E-1,1.126020005E1
8.100998875E0,-1.084487999E1,7.417434545E0,-1.502439431E0,1.322448795E1
8.111007875E0,-1.444345531E1,8.693217478E0,-2.227951716E0,1.700438767E1
8.121017875E0,-1.926889575E1,9.346227506E0,-2.830913086E0,2.160223092E1
8.131025875E0,-2.365525474E1,9.252853319E0,-3.955805111E0,2.570670662E1
8.141035875E0,-2.719758452E1,9.647401212E0,-5.373303502E0,2.935393235E1
8.151044875E0,-2.800668246E1,1.021162185E1,-7.453715934E0,3.072798992E1
8.161053875E0,-2.598003752E1,9.807287477E0,-9.660763854E0,2.940196584E1
8.171062875E0,-2.175931144E1,8.342568142E0,-1.051572034E1,2.556651035E1
8.181071875E0,-1.599469238E1,6.701330722E0,-9.569827956E0,1.980705998E1
8.191080875E0,-1.047035296E1,5.297663920E0,-6.260679288E0,1.329998644E1
8.201089875E0,-5.868503610E0,3.611770145E0,-1.919868940E0,7.153328942E0
8.211098875E0,-1.802376743E0,1.922483815E0,2.081343309E0,3.358049421E0
8.221107875E0,2.325304348E0,9.281671321E-1,5.951197858E0,6.456414677E0
8.231116875E0,5.581040456E0,7.017056394E-1,9.735153301E0,1.124338086E1
8.241125875E0,7.482842084E0,4.375570875E-1,1.163261805E1,1.383843143E1
8.251134875E0,8.676899654E0,-4.133338273E-1,1.061249527E1,1.371438982E1
8.261143875E0,9.063246242E0,-1.336270040E0,7.407355700E0,1.178121252E1
8.271152875E0,8.805330237E0,-2.131231168E0,3.915872136E0,9.869652550E0
8.281161875E0,8.878878855E0,-2.802539472E0,5.847088476E-1,9.329019329E0
8.291170875E0,9.571855186E0,-3.078944373E0,-2.669285520E0,1.040314353E1
8.301180875E0,9.781925763E0,-3.371209846E0,-5.170577027E0,1.156658957E1
8.311189875E0,9.370760084E0,-3.794571648E0,-5.927745845E0,1.171956012E1
8.321198875E0,8.799568391E0,-4.214901668E0,-4.452534267E0,1.072487116E1
8.331207875E0,7.609526689E0,-4.819165213E0,-1.849771349E0,9.195156542E0
8.341216875E0,6.725611870E0,-5.656749619E0,5.100070131E-1,8.802998264E0
8.351225875E0,6.129805738E0,-6.270061145E0,2.079905040E0,9.011891595E0
8.361234875E0,5.909560420E0,-6.695358961E0,3.164219873E0,9.474334983E0
8.371243875E0,6.075117314E0,-7.060065004E0,3.629827516E0,9.996360139E0
8.381252875E0,6.096602324E0,-7.312590460E0,3.563910392E0,1.016582493E1
8.391261875E0,6.122596121E0,-7.681182563E0,2.961665014E0,1.025954231E1
8.401270875E0,6.171991645E0,-7.998036747E0,1.792454603E0,1.026035897E1
8.411279875E0,6.045203544E0,-8.034678324E0,3.712721738E-1,1.006172871E1
8.421288875E0,5.894681010E0,-7.978328122E0,-9.353157918E-1,9.963724176E0
8.431297875E0,5.897117545E0,-7.999434232E0,-1.975789664E0,1.013265455E1
8.441306875E0,5.368457329E0,-7.764797162E0,-2.547141863E0,9.777542673E0
8.451315875E0,4.408456786E0,-7.409361295E0,-2.041426560E0,8.860053523E0
8.461324875E0,3.311624379E0,-7.123658736E0,-6.966419506E-1,7.886613965E0
8.471333875E0,2.753549160E0,-6.882611949E0,7.415871584E-1,7.449988707E0
8.481342875E0,2.942655131E0,-6.473137869E0,2.311930597E0,7.477015191E0
8.491352875E0,3.780837708E0,-5.923529418E0,3.881803627E0,8.028158813E0
8.501361875E0,4.844866065E0,-5.215930370E0,4.990909631E0,8.694126509E0
8.511370875E0,5.319397436E0,-4.054391506E0,5.338510230E0,8.557673225E0
8.521379875E0,5.184889841E0,-2.256955660E0,4.236950934E0,7.066023261E0
8.531388875E0,4.871206602E0,-4.040759307E-1,1.524349386E0,5.120114468E0
8.541397875E0,4.497708685E0,8.926423734E-1,-1.647157141E0,4.872301353E0
8.551406875E0,3.659424368E0,1.880812463E0,-4.240249933E0,5.908346784E0
8.561415875E0,1.671948751E0,2.067449155E0,-5.579061173E0,6.180265545E0
8.571424875E0,-8.725817460E-1,1.597342372E0,-5.046916602E0,5.365097272E0
8.581433875E0,-4.838852203E0,2.065676279E0,-2.566362830E0,5.853864306E0
8.591442875E0,-9.343668764E0,3.019454216E0,1.604329795E-3,9.819432382E0
8.601451875E0,-1.473283167E1,3.865348100E0,9.760195756E-1,1.526269502E1
8.611460875E0,-2.011942004E1,4.067184044E0,6.668142803E-1,2.053722694E1
8.621469875E0,-2.313339074E1,4.079364379E0,-1.548730083E-1,2.349082729E1
8.631478875E0,-2.331990289E1,6.415657400E0,-1.539471309E0,2.423527393E1
8.641487875E0,-2.127166067E1,9.198357269E0,-3.071584482E0,2.337793736E1
8.651496875E0,-1.910652559E1,1.005815700E1,-3.412871257E0,2.186031867E1
8.661505875E0,-1.724444000E1,1.009676383E1,-2.760843562E0,2.017269461E1
8.671515875E0,-1.507323785E1,1.035795427E1,-1.471057863E0,1.834812599E1
8.681524875E0,-1.338719322E1,1.048677896E1,6.867905617E-1,1.701943467E1
8.691533875E0,-1.227229526E1,9.543358780E0,2.490615660E0,1.574446233E1
8.701542875E0,-1.051345513E1,7.409453681E0,2.833115147E0,1.317039422E1
8.711551875E0,-7.698489736E0,5.516020002E0,2.253490161E0,9.735062342E0
8.721560875E0,-4.437460729E0,4.199821115E0,1.351870412E0,6.257564121E0
8.731569875E0,-1.516615128E0,3.300215877E0,5.731358922E-1,3.676959482E0
8.741578875E0,1.326691132E0,2.519923074E0,7.275561067E-1,2.939295757E0
8.751587875E0,4.176884826E0,1.438820847E0,1.194677447E0,4.576442558E0
8.761596875E0,7.225478641E0,1.144849741E-1,1.417460968E0,7.364091526E0
8.771605875E0,9.363192617E0,-1.182646728E0,2.014420756E0,9.650177214E0
8.781614875E0,1.043432593E1,-2.445441241E0,2.716619900E0,1.105601031E1
8.791623875E0,1.095603322E1,-3.827987900E0,3.100997146E0,1.201267408E1
8.801632875E0,1.053192297E1,-5.232529446E0,2.895937632E0,1.211144998E1
8.811641875E0,9.340912387E0,-6.168758719E0,2.335537999E0,1.143507613E1
8.821650875E0,8.502024636E0,-6.753881403E0,1.658196538E0,1.098403171E1
8.831659875E0,7.902285082E0,-7.165273955E0,1.184096253E0,1.073262989E1
8.841668875E0,7.211259382E0,-7.292453819E0,8.597862840E-1,1.029181116E1
8.851677875E0,6.615408812E0,-7.301864913E0,5.655310035E-1,9.869178804E0
8.861687875E0,6.132415935E0,-7.143302457E0,3.007353111E-1,9.419327838E0
8.871696875E0,5.564039676E0,-6.861437427E0,1.811313920E-1,8.835760842E0
8.881705875E0,5.441748669E0,-6.776817107E0,2.199697678E-1,8.694036196E0
8.891714875E0,5.910674899E0,-6.664244757E0,6.637159869E-2,8.908009942E0
8.901723875E0,6.372693229E0,-6.454764163E0,-4.554536605E-1,9.081995234E0
8.911732875E0,6.091674875E0,-6.302548860E0,-8.679826185E-1,8.808179082E0
8.921741875E0,5.670102906E0,-6.252579725E0,-8.466136765E-1,8.483016851E0
8.931750875E0,5.584314312E0,-6.169384371E0,-4.621839519E-1,8.334235649E0
8.941759875E0,5.537696216E0,-5.970173242E0,1.581088574E-1,8.144571586E0
8.951768875E0,5.460251014E0,-5.668123623E0,6.269899908E-1,7.895256993E0
8.961777875E0,5.095047957E0,-5.376544029E0,8.846357810E-1,7.459847173E0
8.971786875E0,5.190431832E0,-5.213805492E0,1.220402857E0,7.457461595E0
8.981795875E0,5.316599543E0,-4.990955824E0,1.492334565E0,7.443314665E0
8.991804875E0,5.315738833E0,-4.731680342E0,1.491959320E0,7.271301177E0
9.001813875E0,4.979377753E0,-4.685451670E0,1.228887094E0,6.946785130E0
9.011822875E0,4.502615669E0,-4.672281986E0,9.311012650E-1,6.555205289E0
9.021831875E0,4.096871527E0,-4.325996427E0,9.309656826E-1,6.030364707E0
9.031840875E0,3.818201416E0,-3.631333174E0,9.079427826E-1,5.346924608E0
9.041850875E0,4.001961277E0,-2.688709386E0,7.959172205E-1,4.886546475E0
9.051859875E0,4.333461567E0,-1.467393851E0,7.552241810E-1,4.637078545E0
9.061868875E0,4.156453485E0,-1.701487130E-1,8.111770646E-1,4.238285549E0
9.071877875E0,2.648719693E0,1.271163048E0,7.953172962E-1,3.043698591E0
9.081886875E0,-2.962281311E-1,2.869149783E0,4.343335176E-1,2.916919126E0
9.091895875E0,-4.589736258E0,4.739016259E0,-4.542551275E-1,6.612889062E0
9.101904875E0,-9.004840159E0,6.448335734E0,-1.276826223E0,1.114892216E1
9.111913875E0,-1.225295033E1,8.202061889E0,-1.696130934E0,1.484201708E1
9.121922875E0,-1.466878244E1,1.023704555E1,-1.808036117E0,1.797885631E1
9.131931875E0,-1.582682701E1,1.265141118E1,-2.457256125E0,2.041040826E1
9.141940875E0,-1.735211765E1,1.482372079E1,-3.229682376E0,2.304928487E1
9.151949875E0,-1.915036918E1,1.573863228E1,-3.410417765E0,2.502143352E1
9.161958875E0,-2.034195338E1,1.485088695E1,-4.210709800E0,2.553573942E1
9.171967875E0,-2.038064791E1,1.399210522E1,-5.941086853E0,2.542530886E1
9.181977375E0,-1.846126546E1,1.395962394E1,-6.654968734E0,2.408273306E1
9.191986375E0,-1.506979969E1,1.349085383E1,-5.522761842E0,2.096670928E1
9.201995375E0,-1.250709137E1,1.146059647E1,-3.638010110E0,1.734957416E1
9.212004375E0,-1.134344283E1,9.031000602E0,-1.987258101E0,1.463495343E1
9.222013375E0,-9.897198358E0,6.863695037E0,-5.954640698E-1,1.205899757E1
9.232023375E0,-7.592914749E0,4.759804865E0,6.208257830E-1,8.982957274E0
9.242032375E0,-4.621132298E0,2.698066685E0,1.669447896E0,5.605486940E0
9.252041375E0,-1.355692737E0,8.306899542E-1,2.635804363E0,3.078215918E0
9.262050375E0,2.145902417E0,-9.886279267E-1,3.653078384E0,4.350547557E0
9.272059375E0,5.538028922E0,-2.754588211E0,4.135771884E0,7.440573205E0
9.282068375E0,8.782923707E0,-4.067828407E0,3.736328702E0,1.037531344E1
9.292077375E0,1.107053924E1,-5.033613017E0,3.436400453E0,1.263736314E1
9.302086375E0,1.141533201E1,-6.281421116E0,3.570992832E0,1.350992398E1
9.312095375E0,9.635317356E0,-7.484807918E0,3.557291636E0,1.270889507E1
9.322104375E0,7.280910246E0,-7.963437603E0,3.117124937E0,1.123140509E1
9.332113375E0,5.509868731E0,-8.491538824E0,2.503916906E0,1.042758289E1
9.342122375E0,4.057588179E0,-8.456740290E0,1.768413191E0,9.545038678E0
9.352131375E0,3.972860854E0,-7.560020068E0,8.981685770E-1,8.587446279E0
9.362140375E0,5.153551689E0,-6.906735222E0,4.102184308E-1,8.627303495E0
9.372149375E0,6.143306374E0,-6.539770984E0,3.871780987E-1,8.981020243E0
9.382158375E0,6.618657525E0,-6.322262163E0,2.260965900E-1,9.155803949E0
9.392167375E0,6.330134854E0,-6.008811643E0,3.666636908E-1,8.735609132E0
9.402176375E0,6.421048533E0,-5.903532525E0,6.923677091E-1,8.749910490E0
9.412185375E0,6.912383047E0,-5.805040855E0,8.407850989E-1,9.065674730E0
9.422195375E0,6.941668827E0,-5.618618757E0,9.106337444E-1,8.976909081E0
9.432204375E0,6.761187499E0,-5.718286886E0,1.224115693E0,8.939290830E0
9.442213375E0,6.481604052E0,-6.132203681E0,1.598749212E0,9.064828300E0
9.452222375E0,6.450973413E0,-6.557638906E0,1.632576524E0,9.342536706E0
9.462231375E0,6.444416930E0,-6.780402619E0,1.591371195E0,9.488773974E0
9.472240375E0,6.179657344E0,-6.764049711E0,1.801789098E0,9.337396711E0
9.482249375E0,6.335551715E0,-6.761012667E0,2.073097565E0,9.494642770E0
9.492258375E0,6.763549774E0,-6.376576365E0,2.285878912E0,9.572438252E0
9.502267375E0,7.292276064E0,-5.890141817E0,2.243614068E0,9.638716973E0
9.512276375E0,7.588096059E0,-5.498332175E0,1.776612157E0,9.537673158E0
9.522285375E0,7.166619399E0,-4.955953807E0,1.313670552E0,8.811789947E0
9.532294375E0,6.440619748E0,-4.554106835E0,1.003912037E0,7.951686059E0
9.542303375E0,5.683691250E0,-3.908277773E0,8.056819975E-1,6.944645769E0
9.552312375E0,4.962192786E0,-3.381679285E0,8.186324108E-1,6.060467891E0
9.562321375E0,3.857315195E0,-3.154328431E0,1.008546613E0,5.083879880E0
9.572330375E0,2.339493202E0,-3.155248783E0,1.061446227E0,4.068843990E0
9.582339375E0,3.240176082E-1,-2.675101746E0,2.560905039E-1,2.706794988E0
9.592348375E0,-2.032906144E0,-1.262994488E0,-1.115168252E0,2.640352760E0
9.602357375E0,-3.471386683E0,1.704480904E-1,-2.119324629E0,4.070763434E0
9.612366375E0,-4.948727818E0,1.835324049E0,-3.157863657E0,6.150644215E0
9.622376375E0,-7.332452867E0,3.213196444E0,-4.198853985E0,9.039904381E0
9.632385375E0,-1.035085341E1,3.217026955E0,-4.608159081E0,1.177813903E1
9.642394375E0,-1.366908983E1,2.929864347E0,-4.757450191E0,1.476690401E1
9.652403375E0,-1.706865165E1,3.818842855E0,-5.063106957E0,1.820871994E1
9.662412375E0,-2.049318576E1,5.873132851E0,-5.837444955E0,2.210294360E1
9.672421375E0,-2.332522619E1,7.235028314E0,-6.571088086E0,2.529013662E1
9.682430375E0,-2.633745442E1,8.188389344E0,-5.545514528E0,2.813296921E1
9.692439375E0,-2.874762058E1,9.020055783E0,-3.810962855E0,3.036956590E1
9.702448375E0,-2.839306881E1,9.424859692E0,-3.587464439E0,3.013078555E1
9.712457375E0,-2.333178911E1,9.668579827E0,-4.429051849E0,2.564118404E1
9.722466375E0,-1.391436181E1,9.840403183E0,-5.278303789E0,1.784106192E1
9.732475375E0,-2.850755612E0,1.043808802E1,-4.808206362E0,1.184058012E1
9.742484375E0,7.848937426E0,1.034592772E1,-2.893397602E0,1.330472806E1
9.752493375E0,1.544120547E1,9.572261567E0,-1.569684585E-2,1.816753325E1
9.762502375E0,1.810860585E1,9.028838301E0,3.933856418E0,2.061350900E1
9.772511375E0,1.669796157E1,7.654415764E0,8.031916684E0,2.004803449E1
9.782520375E0,1.342533110E1,5.366213753E0,1.038195592E1,1.779945993E1
9.792529375E0,9.720881417E0,2.927900852E0,1.003000500E1,1.427126971E1
9.802538375E0,6.760001099E0,5.027763462E-1,7.767548862E0,1.030947206E1
9.812547375E0,4.994610919E0,-1.763238990E0,5.137760698E0,7.379141885E0
9.822557375E0,3.785215810E0,-3.617708577E0,2.549429879E0,5.823681549E0
9.832566375E0,3.225501325E0,-4.825265613E0,-1.131167257E-1,5.805156538E0
9.842575375E0,3.634074934E0,-5.502659115E0,-2.260249397E0,6.970974486E0
9.852584375E0,4.700881303E0,-6.147143317E0,-3.290400156E0,8.409065892E0
9.862593375E0,5.470090708E0,-6.841821188E0,-3.176812145E0,9.317968927E0
9.872602375E0,5.497632848E0,-7.477932762E0,-2.426836571E0,9.593382149E0
9.882611375E0,4.859046147E0,-8.055470438E0,-1.327818475E0,9.500738674E0
9.892620375E0,4.111149259E0,-8.368036859E0,6.132910609E-2,9.323591066E0
9.902629375E0,3.677966473E0,-8.350557777E0,1.455088971E0,9.239942450E0
9.912638375E0,3.629317639E0,-8.350313948E0,2.371847016E0,9.408790986E0
9.922647375E0,4.133680919E0,-8.356991469E0,2.550093538E0,9.665898893E0
9.932656375E0,4.720892814E0,-8.265467341E0,2.241541815E0,9.779022908E0
9.942665375E0,4.935729457E0,-8.184061235E0,1.754331926E0,9.716890659E0
9.952674375E0,5.006097189E0,-8.177893592E0,1.382587005E0,9.687646747E0
9.962683375E0,4.852412481E0,-7.975751254E0,1.578054746E0,9.468303530E0
9.972692375E0,4.761270177E0,-7.755229363E0,2.136762049E0,9.347675017E0
9.982701375E0,4.754189199E0,-7.660007456E0,2.595721700E0,9.381673641E0
9.992710375E0,4.806970260E0,-7.397910692E0,2.920549732E0,9.293312457E0
1.000271937E1,5.808316466E0,-6.573075555E0,3.006947021E0,9.272733837E0
1.001272837E1,6.590104401E0,-5.800394073E0,2.755535460E0,9.201468529E0
1.002273837E1,6.286914575E0,-5.258631417E0,2.488925815E0,8.565818756E0
1.003274737E1,5.117387829E0,-4.259640470E0,2.191611271E0,7.009661553E0
1.004275637E1,3.214169421E0,-2.701820598E0,1.832327936E0,4.581282055E0
1.005276537E1,4.453906024E-1,-5.774026054E-1,1.160050163E0,1.370212735E0
1.006277437E1,-2.280034620E0,1.690369819E0,1.984767918E-1,2.845224250E0
1.007278337E1,-3.882830105E0,3.165481410E0,-4.021681304E-1,5.025771721E0
1.008279237E1,-4.347366246E0,4.165598531E0,-7.972434421E-1,6.073499938E0
1.009280137E1,-3.740093139E0,5.067935588E0,-2.087914410E0,6.635635192E0
1.010281037E1,-2.789545789E0,5.854403635E0,-4.092135283E0,7.668192668E0
1.011281937E1,-2.733736455E0,6.885993978E0,-6.284752275E0,9.715366140E0
1.012282837E1,-4.741017176E0,6.684836311E0,-7.826914473E0,1.133246975E1
1.013283738E1,-8.675344879E0,5.350725063E0,-7.355247653E0,1.256946839E1
1.014284637E1,-1.257234396E1,4.545666963E0,-5.051077480E0,1.429126672E1
1.015285537E1,-1.546943115E1,5.090075485E0,-2.470084916E0,1.647159640E1
1.016286438E1,-1.824851803E1,6.510738389E0,-6.506726030E-1,1.938611615E1
1.017287337E1,-2.040704458E1,7.021390935E0,3.061543643E-1,2.158335307E1
1.018288175E1,-2.093860326E1,6.690859528E0,8.273587954E-1,2.199720960E1
1.019289075E1,-1.837808414E1,6.771979120E0,8.672812450E-1,1.960525069E1
1.020289975E1,-1.269039690E1,7.336047150E0,3.245404954E-1,1.466182417E1
1.021290975E1,-7.756464880E0,7.382310321E0,1.678665447E-1,1.070931521E1
1.022291875E1,-5.169935587E0,6.243473856E0,2.363257456E-1,8.109565316E0
1.023292775E1,-4.531399173E0,4.760379061E0,-4.144928916E-1,6.585331550E0
1.024293675E1,-3.847472577E0,3.095732313E0,-1.279809326E0,5.101422909E0
1.025294575E1,-2.349060416E0,1.165399196E0,-1.293827295E0,2.924077494E0
1.026295475E1,-6.150352854E-1,-6.628099608E-1,-4.892249854E-1,1.028069323E0
1.027296375E1,1.266829092E0,-2.114088301E0,6.622590069E-1,2.552021216E0
1.028297275E1,3.792988222E0,-3.037118070E0,1.804398856E0,5.183309855E0
1.029298175E1,6.280382066E0,-3.358225518E0,2.588088745E0,7.577537917E0
1.030299075E1,7.775303439E0,-3.510706869E0,2.924035842E0,9.018336426E0
1.031299975E1,8.295495717E0,-3.735274449E0,2.707949649E0,9.492129145E0
1.032300875E1,7.816828610E0,-3.884491884E0,1.788867921E0,8.910226437E0
1.033301775E1,6.850785554E0,-4.102946200E0,5.225564535E-1,8.002530567E0
1.034302675E1,5.901484246E0,-4.404546168E0,-5.389296806E-1,7.383629761E0
1.035303575E1,5.099802328E0,-4.673528613E0,-1.320564273E0,7.042282548E0
1.036304475E1,4.698336010E0,-4.744071761E0,-1.698790394E0,6.889591203E0
1.037305375E1,5.062095389E0,-4.827090529E0,-1.460585353E0,7.145552622E0
1.038306275E1,5.888359585E0,-5.142316849E0,-7.554319033E-1,7.854099473E0
1.039307175E1,6.610476685E0,-5.557877296E0,9.341760233E-2,8.636962943E0
1.040308075E1,7.270927879E0,-5.891646890E0,7.843490160E-1,9.391118074E0
1.041308975E1,7.963427662E0,-6.178348153E0,1.350931495E0,1.016922720E1
1.042309875E1,8.235496268E0,-6.433826453E0,1.972106795E0,1.063516464E1
1.043310875E1,7.857789525E0,-6.633111257E0,2.584802610E0,1.060302908E1
1.044311775E1,7.047818595E0,-6.741280069E0,2.975865562E0,1.019668474E1
1.045312675E1,5.934183045E0,-6.748519506E0,3.034231299E0,9.484914523E0
1.046313575E1,5.062616376E0,-6.752285698E0,2.745350779E0,8.874705495E0
1.047314475E1,4.732864988E0,-6.796245065E0,2.355748315E0,8.610372124E0
1.048315375E1,4.838331217E0,-6.596970202E0,1.988823839E0,8.419316188E0
1.049316275E1,5.106782150E0,-6.211620564E0,1.655284917E0,8.209958715E0
1.050317175E1,5.424778295E0,-5.712135031E0,1.210463541E0,7.970064501E0
1.051318075E1,5.552901900E0,-5.073257723E0,6.106548437E-1,7.546228381E0
1.052318975E1,5.170168891E0,-4.397804913E0,-1.412336469E-2,6.787601482E0
1.053319875E1,4.509434692E0,-3.728889289E0,-5.017580536E-1,5.872936039E0
1.054320775E1,3.737894002E0,-2.782658354E0,-8.736196268E-1,4.741123320E0
1.055321675E1,3.115400008E0,-1.562388886E0,-1.354507506E0,3.739179967E0
1.056322575E1,2.240715019E0,-3.925557464E-1,-2.058576444E0,3.068002735E0
1.057323475E1,8.944304520E-1,1.128219675E0,-3.273159056E0,3.575815386E0
1.058324375E1,-6.690869468E-1,2.126332955E0,-4.359293396E0,4.896162589E0
1.059325275E1,-2.255086305E0,2.963527352E0,-4.473612310E0,5.820748724E0
1.060326175E1,-3.761858230E0,3.747082316E0,-3.530466365E0,6.376236820E0
1.061327075E1,-5.290211059E0,3.910854641E0,-2.215396429E0,6.941836818E0
1.062327975E1,-7.113310334E0,3.815282485E0,-8.549939060E-1,8.117054819E0
1.063328875E1,-8.867300198E0,4.475803261E0,5.460602139E-1,9.947864565E0
1.064329875E1,-1.038107416E1,5.272204558E0,1.442683518E0,1.173218554E1
1.065330775E1,-1.187473839E1,6.594078169E0,1.067882842E0,1.362467073E1
1.066331675E1,-1.362990646E1,8.858911198E0,-2.336690632E-1,1.625759081E1
1.067332575E1,-1.557114230E1,1.106834888E1,-1.032716517E0,1.913204962E1
1.068333475E1,-1.679233329E1,1.127392294E1,-1.766765592E0,2.030283863E1
1.069334375E1,-1.656483918E1,1.112411494E1,-3.770683433E0,2.030659705E1
1.070335275E1,-1.486731997E1,1.174161600E1,-5.780218256E0,1.980690971E1
1.071336175E1,-1.248233894E1,1.168705212E1,-5.901556166E0,1.808934321E1
1.072337075E1,-9.995251486E0,1.046731241E1,-4.870131884E0,1.527049003E1
1.073337975E1,-7.689482101E0,8.531554829E0,-4.422223470E0,1.230738084E1
1.074338875E1,-5.153622440E0,6.305894637E0,-4.506203520E0,9.307523924E0
1.075339775E1,-2.339965657E0,3.978157847E0,-3.733299844E0,5.936219913E0
1.076340675E1,9.360526872E-1,2.476708642E0,-1.342035395E0,2.968390024E0
1.077341575E1,3.804006715E0,1.284131588E0,1.840053277E0,4.416475641E0
1.078342475E1,5.673132348E0,-1.159333295E-1,4.661341846E0,7.343431009E0
1.079343375E1,6.514271861E0,-1.104671769E0,6.652625170E0,9.376217748E0
1.080344275E1,6.870891790E0,-2.146486554E0,7.012427738E0,1.004941298E1
1.081345175E1,6.561260086E0,-3.269185288E0,5.813902895E0,9.356237131E0
1.082346075E1,6.203709866E0,-4.027430579E0,4.199545126E0,8.505433113E0
1.083346975E1,6.336864415E0,-4.585014632E0,3.254777749E0,8.471823179E0
1.084347975E1,6.449979971E0,-4.822676466E0,2.971945589E0,8.584457496E0
1.085348875E1,6.151823428E0,-4.824796667E0,2.745408082E0,8.286184882E0
1.086349775E1,5.810265927E0,-5.184847741E0,2.742582707E0,8.256124766E0
1.087350675E1,5.701221203E0,-5.708066538E0,3.123453963E0,8.651121977E0
1.088351575E1,6.012883644E0,-6.005990362E0,3.547342014E0,9.209252158E0
1.089352475E1,6.464372892E0,-6.096580104E0,3.701797385E0,9.625991364E0
1.090353375E1,6.802568244E0,-6.363311371E0,3.706447091E0,1.002518909E1
1.091354275E1,6.924859251E0,-6.788823779E0,3.455318534E0,1.029470884E1
1.092355175E1,7.006313889E0,-6.992874649E0,2.793604342E0,1.028557025E1
1.093356075E1,6.910441187E0,-7.057217410E0,1.713370719E0,1.002467726E1
1.094356975E1,6.386535342E0,-7.046241016E0,5.461528923E-1,9.525525136E0
1.095357875E1,5.951025365E0,-6.996271296E0,-5.469592233E-1,9.201178149E0
1.096358775E1,5.723435360E0,-6.921222868E0,-1.417794260E0,9.092369266E0
1.097359675E1,5.358859125E0,-6.599201499E0,-1.998434322E0,8.732729887E0
1.098360575E1,5.331547365E0,-6.351581272E0,-2.203698635E0,8.580458591E0
1.099361475E1,5.387545565E0,-5.852482240E0,-2.241516379E0,8.264477676E0
1.100362375E1,5.417976814E0,-5.280759619E0,-1.995161490E0,7.824421019E0
1.101363275E1,5.623314655E0,-4.758293944E0,-1.445890131E0,7.506905304E0
1.102364175E1,6.036498794E0,-4.030993288E0,-6.515603565E-1,7.287849852E0
1.103365075E1,6.321957523E0,-3.026018300E0,7.634709477E-2,7.009262626E0
1.104365975E1,5.959231932E0,-1.823274692E0,6.512596634E-1,6.265853092E0
1.105366875E1,5.216732023E0,-7.562537295E-1,1.008925366E0,5.366949143E0
1.106367875E1,4.409364858E0,1.343608296E-1,6.451022530E-1,4.458330203E0
1.107368775E1,4.249033036E0,5.605895215E-1,-7.734180848E-1,4.355079550E0
1.108369675E1,3.337013574E0,1.356735295E0,-2.456835126E0,4.360324425E0
1.109370575E1,1.579665654E0,2.382977775E0,-3.734070215E0,4.702893474E0
1.110371475E1,-1.434542440E0,3.681620398E0,-3.642263374E0,5.373855530E0
1.111372375E1,-5.236533619E0,4.840014045E0,-2.026309023E0,7.413025601E0
1.112373275E1,-9.177689116E0,5.519805490E0,3.767349350E-1,1.071635010E1
1.113374175E1,-1.265260518E1,5.791964727E0,2.138816761E0,1.407870059E1
1.114375075E1,-1.572371019E1,5.962076018E0,2.795242147E0,1.704684109E1
1.115375975E1,-1.841760781E1,6.620346200E0,1.574302003E0,1.963455342E1
1.116376875E1,-2.036190876E1,7.688039008E0,-1.217984376E0,2.179900819E1
1.117377775E1,-2.201450965E1,9.451990773E0,-3.935238407E0,2.427889755E1
1.118378975E1,-2.301604882E1,1.056703901E1,-5.840193146E0,2.599054968E1
1.119379875E1,-2.253952179E1,1.060970848E1,-6.817257620E0,2.582771686E1
1.120380775E1,-2.042165327E1,1.040287024E1,-6.917715708E0,2.393989186E1
1.121381675E1,-1.695656637E1,1.015694805E1,-5.120108539E0,2.041823323E1
1.122382575E1,-1.298807748E1,9.595413617E0,-1.710162936E0,1.623843516E1
1.123383475E1,-8.854215884E0,8.437777185E0,1.755512479E-1,1.223209062E1
1.124384375E1,-4.127002230E0,6.668013872E0,-8.483850905E-1,7.887605065E0
1.125385275E1,6.832623518E-1,4.968168640E0,-3.466427075E0,6.096364797E0
1.126386175E1,4.212133012E0,3.803900295E0,-5.389595014E0,7.826842044E0
1.127387075E1,5.946009623E0,2.727132609E0,-5.207436705E0,8.361200855E0
1.128388075E1,6.433110169E0,1.129221888E0,-3.002690541E0,7.188615931E0
1.129388975E1,6.296991667E0,-7.975508595E-1,2.481441379E-2,6.347346467E0
1.130389875E1,6.260082872E0,-2.620281175E0,2.971110606E0,7.408239280E0
1.131390775E1,6.470951595E0,-4.001279492E0,5.746771013E0,9.534612167E0
1.132391675E1,7.109409657E0,-5.018375173E0,7.585279455E0,1.154401401E1
1.133392575E1,8.186276745E0,-5.559833774E0,8.520333438E0,1.305844403E1
1.134393475E1,9.473786269E0,-5.990429751E0,8.288556826E0,1.394051825E1
1.135394375E1,1.027165405E1,-6.480859117E0,6.911246349E0,1.397403799E1
1.136395275E1,1.021045007E1,-6.759548525E0,5.125880910E0,1.327476712E1
1.137396175E1,9.684642713E0,-6.903684729E0,3.500618376E0,1.239788274E1
1.138397075E1,8.763537263E0,-7.095661098E0,2.093532122E0,1.146869079E1
1.139397975E1,7.606866206E0,-7.020326741E0,1.061875412E0,1.040562254E1
1.140398875E1,6.623855115E0,-6.858423772E0,1.471989763E-1,9.535989763E0
1.141399775E1,5.745613849E0,-6.616924995E0,-6.771160510E-1,8.789440314E0
1.142400675E1,5.162051786E0,-6.343170637E0,-1.103962501E0,8.252352730E0
1.143401575E1,4.565687245E0,-5.997197903E0,-1.180042963E0,7.629179779E0
1.144402475E1,4.300202020E0,-5.982229031E0,-1.167759717E0,7.459387666E0
1.145403375E1,4.387161811E0,-6.029182758E0,-1.126662854E0,7.541061110E0
1.146404275E1,4.716999738E0,-5.888002321E0,-1.100643914E0,7.624308157E0
1.147405175E1,5.458113272E0,-5.661726184E0,-9.127945098E-1,7.917028337E0
1.148406075E1,6.340199667E0,-5.292517785E0,-6.018220398E-1,8.280764825E0
1.149407075E1,6.886670501E0,-5.085064421E0,1.296532363E-2,8.560623743E0
1.150407975E1,6.924627117E0,-5.110823745E0,9.356881133E-1,8.657164219E0
1.151408875E1,6.403470633E0,-4.852083283E0,2.009558212E0,8.281634654E0
1.152409775E1,6.025842243E0,-4.404505822E0,3.002029221E0,8.045037335E0
1.153410675E1,5.991933655E0,-4.044457086E0,3.679291160E0,8.111601906E0
1.154411575E1,6.219333626E0,-3.535856913E0,4.090894796E0,8.241226553E0
1.155412475E1,6.550847949E0,-2.541754823E0,4.330834998E0,8.254105537E0
1.156413375E1,6.209538955E0,-1.398161649E0,4.261917960E0,7.660102788E0
1.157414275E1,4.995951685E0,-4.511085945E-1,3.770200453E0,6.275144912E0
1.158415175E1,3.376474094E0,3.232253104E-1,2.840277694E0,4.424051230E0
1.159416075E1,9.844471675E-1,1.070415271E0,1.561357437E0,2.133720255E0
1.160416975E1,-2.438309977E0,2.007465493E0,-8.252283624E-1,3.264395059E0
1.161417875E1,-6.540017737E0,2.975254820E0,-4.636088891E0,8.550865070E0
1.162418775E1,-1.029703564E1,3.851752154E0,-7.864039614E0,1.351695442E1
1.163419675E1,-1.268171262E1,4.876356537E0,-8.784070930E0,1.617914059E1
1.164420575E1,-1.366182992E1,5.538469802E0,-7.773993078E0,1.666598971E1
1.165421475E1,-1.435962728E1,5.828434396E0,-6.756468211E0,1.690619431E1
1.166422375E1,-1.559130350E1,6.655641164E0,-6.432982700E0,1.813200404E1
1.167423275E1,-1.699742905E1,7.771065377E0,-6.487134349E0,1.978345176E1
1.168424175E1,-1.846309096E1,8.190859793E0,-6.598857683E0,2.124901962E1
1.169425075E1,-1.896523230E1,8.034130440E0,-6.283856481E0,2.153402286E1
1.170425975E1,-1.804458001E1,8.536005730E0,-4.528661799E0,2.046897748E1
1.171426875E1,-1.673185203E1,8.963731309E0,-2.123936913E0,1.910011674E1
1.172427875E1,-1.510361765E1,8.304525572E0,-7.498619919E-1,1.725244052E1
1.173428775E1,-1.243552028E1,7.277898345E0,-9.298594625E-1,1.443864978E1
1.174429675E1,-7.964995301E0,6.321558158E0,-1.667226978E0,1.030450841E1
1.175430575E1,-2.322897635E0,5.478851591E0,-2.410105201E0,6.420457559E0
1.176431475E1,2.564395827E0,4.414208107E0,-2.378126925E0,5.631771199E0
1.177432375E1,5.446189629E0,3.066773393E0,-1.041606551E0,6.336483625E0
1.178433275E1,6.698462078E0,1.349033343E0,1.227586673E0,6.942352210E0
1.179434175E1,6.928408511E0,-3.663198745E-1,3.543967001E0,7.790811053E0
1.180435075E1,6.920222994E0,-1.877072584E0,5.326619332E0,8.932287573E0
1.181435975E1,7.069683673E0,-3.161077872E0,6.415810597E0,1.005661306E1
1.182436875E1,7.254282610E0,-4.119433594E0,6.809180861E0,1.076843969E1
1.183437775E1,7.222846225E0,-5.020743880E0,6.257346375E0,1.079498774E1
1.184438675E1,6.992983407E0,-5.902095280E0,5.056246419E0,1.045476798E1
1.185439575E1,6.759507594E0,-6.538493952E0,3.726342827E0,1.011575390E1
1.186440475E1,6.236686993E0,-6.703607628E0,2.541368322E0,9.502271982E0
1.187441375E1,5.778143079E0,-6.551850162E0,1.522133145E0,8.867387851E0
1.188442275E1,5.892883576E0,-6.432723668E0,8.731576967E-1,8.767463430E0
1.189443175E1,6.217099405E0,-6.329945989E0,6.441829245E-1,8.895814346E0
1.190444075E1,6.325885683E0,-6.221339806E0,6.762059319E-1,8.898266860E0
1.191444975E1,6.334721410E0,-6.320090507E0,8.155602837E-1,8.985398040E0
1.192445875E1,6.410313045E0,-6.476277239E0,1.003461801E0,9.167399620E0
1.193446775E1,6.695816213E0,-6.542094083E0,1.176762675E0,9.434920251E0
1.194447675E1,6.874715284E0,-6.443075579E0,1.251095989E0,9.504744832E0
1.195448675E1,7.038420365E0,-6.334304504E0,1.265782879E0,9.553270701E0
1.196449575E1,7.023229299E0,-6.150393784E0,1.271937804E0,9.421832055E0
1.197450475E1,7.078337553E0,-5.829982154E0,1.152688519E0,9.242307355E0
1.198451375E1,7.382229629E0,-5.498432162E0,8.663187933E-1,9.245570766E0
1.199452275E1,7.466804341E0,-5.282231364E0,7.064475851E-1,9.173560020E0
1.200453175E1,7.074538617E0,-5.073113297E0,5.628402610E-1,8.723666908E0
1.201454075E1,6.470817109E0,-4.891681212E0,6.583320169E-1,8.138391744E0
1.202454975E1,5.438499956E0,-4.599268389E0,1.159330956E0,7.216273259E0
1.203455875E1,4.052561912E0,-4.131953652E0,1.837256115E0,6.072216158E0
1.204456775E1,2.811405605E0,-3.569761409E0,2.200601804E0,5.048747002E0
1.205457675E1,1.534073160E0,-2.979990188E0,2.203054564E0,4.010881623E0
1.206458575E1,5.951272702E-1,-1.759409648E0,1.970497788E0,2.707870069E0
1.207459475E1,5.073202175E-1,-1.265869564E-1,1.396571498E0,1.491244450E0
1.208460375E1,5.688054442E-2,1.442995175E0,3.075221743E-1,1.476495973E0
1.209461275E1,-1.898865741E0,2.977481732E0,-1.018089415E0,3.675267967E0
1.210462175E1,-5.224957886E0,3.985006691E0,-2.161972904E0,6.917701213E0
1.211463075E1,-9.265269881E0,5.015569094E0,-2.828358145E0,1.090874737E1
1.212463975E1,-1.329921367E1,6.062345826E0,-3.674686477E0,1.507064836E1
1.213464875E1,-1.636826046E1,6.812410278E0,-4.530221836E0,1.829895610E1
1.214465775E1,-1.780607442E1,7.537199555E0,-4.459538062E0,1.984321403E1
1.215466675E1,-1.822199155E1,8.904239983E0,-3.575181777E0,2.059389207E1
1.216467575E1,-1.747738840E1,1.017132051E1,-2.979988141E0,2.044003902E1
1.217468475E1,-1.600780535E1,1.068367576E1,-2.560435216E0,1.941511237E1
1.218469242E1,-1.463206777E1,1.094665779E1,-1.652834787E0,1.834825842E1
1.219470142E1,-1.387319741E1,1.164714604E1,-4.329293087E-2,1.811417930E1
1.220471042E1,-1.377336205E1,1.191423750E1,1.110139500E0,1.824519024E1
1.221471942E1,-1.354949205E1,1.083427665E1,3.644053499E-1,1.735232193E1
1.222472842E1,-1.238862795E1,9.057932877E0,-1.094522756E0,1.538578014E1
1.223473742E1,-1.022605512E1,7.166449830E0,-1.337844111E0,1.255866368E1
1.224474642E1,-7.370231143E0,5.311285009E0,-7.407110994E-1,9.114752244E0
1.225475542E1,-4.183871080E0,3.679965636E0,-2.285206629E-1,5.576660828E0
1.226476442E1,-6.582210660E-1,1.971984589E0,2.084275103E-1,2.089358805E0
1.227477342E1,3.290243450E0,5.024582577E-1,6.708438159E-1,3.395319969E0
1.228478242E1,7.005342667E0,-4.392937106E-1,1.054790926E0,7.097914393E0
1.229479142E1,9.730842733E0,-1.302826890E0,1.553095029E0,9.939756656E0
1.230480042E1,1.104162008E1,-2.238208902E0,2.449160070E0,1.152932514E1
1.231480942E1,1.083548000E1,-3.162665391E0,3.416947936E0,1.179345634E1
1.232481842E1,9.503060355E0,-4.079885366E0,4.219378881E0,1.116945741E1
1.233482742E1,7.825415831E0,-5.018648238E0,4.710132183E0,1.042157897E1
1.234483642E1,6.574690556E0,-6.085712469E0,4.639419465E0,1.008893776E1
1.235484542E1,5.794885411E0,-6.954956625E0,3.853629695E0,9.838830236E0
1.236485442E1,5.164395350E0,-7.438200347E0,2.571891958E0,9.413417656E0
1.237486342E1,4.748481731E0,-7.645039753E0,1.160873524E0,9.074267955E0
1.238487242E1,4.999182272E0,-7.645256685E0,-4.049220228E-1,9.143617173E0
1.239488142E1,6.050124561E0,-7.563072315E0,-1.869277661E0,9.863988494E0
1.240489042E1,7.094468851E0,-7.449376130E0,-2.739504733E0,1.064563663E1
1.241490042E1,7.594032737E0,-7.380309404E0,-2.859679048E0,1.096886796E1
1.242490942E1,7.649376633E0,-7.328435830E0,-2.163339837E0,1.081198288E1
1.243491842E1,7.096586713E0,-7.195518678E0,-7.229392183E-1,1.013211099E1
1.244492742E1,6.104475600E0,-7.187771117E0,7.850028808E-1,9.462816996E0
1.245493642E1,4.955644489E0,-7.302339706E0,1.932588973E0,9.034239184E0
1.246494542E1,4.134901233E0,-7.246097678E0,2.701194946E0,8.769252756E0
1.247495442E1,3.942192208E0,-7.155954078E0,2.992622513E0,8.700824540E0
1.248496342E1,4.131729704E0,-6.870526924E0,2.709383386E0,8.462628958E0
1.249497242E1,4.836156637E0,-6.558110776E0,1.646125546E0,8.313059442E0
1.250498142E1,5.785852633E0,-6.352447245E0,5.560349791E-1,8.610392069E0
1.251499042E1,6.340456359E0,-5.959548851E0,-5.149525881E-2,8.701738971E0
1.252499942E1,6.273458962E0,-5.504268853E0,-3.267962050E-1,8.352248722E0
1.253500842E1,5.618119989E0,-4.561524028E0,-2.653307126E-1,7.241627859E0
1.254501742E1,4.508982117E0,-3.227418042E0,5.885807276E-2,5.545323365E0
1.255502642E1,2.934502943E0,-1.896186547E0,6.031554973E-1,3.545508074E0
1.256503542E1,1.052433913E0,-6.287955379E-1,1.315623522E0,1.798295366E0
1.257504442E1,-7.553579360E-1,7.080674100E-1,1.919050476E0,2.180522827E0
1.258505342E1,-2.079444133E0,2.055324953E0,2.080132058E0,3.588230475E0
1.259506242E1,-2.759899821E0,3.245071371E0,1.495747146E0,4.514952353E0
1.260507142E1,-2.372728776E0,5.092722520E0,4.935561642E-2,5.618549678E0
1.261508042E1,-1.814104503E0,6.714092855E0,-1.541536253E0,7.123647383E0
1.262508942E1,-2.618072097E0,7.688917260E0,-2.727440758E0,8.568120168E0
1.263509842E1,-4.723436353E0,8.116707743E0,-3.511082845E0,1.002594127E1
1.264510742E1,-7.438294487E0,8.390254524E0,-3.650517304E0,1.179198340E1
1.265511742E1,-1.104879462E1,8.451250924E0,-3.904199924E0,1.444791617E1
1.266512642E1,-1.528495384E1,8.756354544E0,-4.573294765E0,1.819941163E1
1.267513542E1,-1.950798606E1,9.458002295E0,-5.305478724E0,2.231957509E1
1.268514442E1,-2.307997058E1,9.380327883E0,-6.186796210E0,2.567006117E1
1.269515342E1,-2.511574654E1,8.303760172E0,-7.013658577E0,2.736685155E1
1.270516242E1,-2.373144162E1,7.134550345E0,-7.530699205E0,2.589970194E1
1.271517142E1,-1.878348680E1,6.552013884E0,-6.687756411E0,2.098748075E1
1.272518042E1,-1.302769705E1,6.010721928E0,-5.581604127E0,1.539493336E1
1.273518942E1,-8.396682369E0,4.845581764E0,-5.697121135E0,1.124460434E1
1.274519842E1,-4.981523096E0,3.357299320E0,-6.338971167E0,8.733246048E0
1.275520742E1,-2.018199812E0,1.922707763E0,-6.073686501E0,6.682784100E0
1.276521642E1,8.562165588E-1,7.609502131E-1,-4.410600667E0,4.556923334E0
1.277522542E1,3.643877791E0,-4.304778636E-1,-1.745102681E0,4.063070257E0
1.278523442E1,6.025629405E0,-1.547969652E0,1.458972545E0,6.390072038E0
1.279524342E1,7.742905186E0,-2.397473023E0,4.443970435E0,9.243880724E0
1.280525242E1,8.948441425E0,-3.013461989E0,6.428679149E0,1.142293626E1
1.281526142E1,9.435442568E0,-3.571151876E0,7.156573298E0,1.236920545E1
1.282527042E1,8.918705994E0,-4.266435519E0,6.769228005E0,1.198199635E1
1.283527942E1,7.672337480E0,-5.130615985E0,5.594362167E0,1.079281571E1
1.284528842E1,6.552158895E0,-6.052962214E0,4.288484784E0,9.897486524E0
1.285529742E1,5.556349418E0,-6.578127549E0,3.122161728E0,9.159294447E0
1.286530642E1,4.491374397E0,-6.664581556E0,1.931559717E0,8.265592189E0
1.287531542E1,3.803154776E0,-6.728572315E0,9.802365875E-1,7.790926480E0
1.288532442E1,4.006661854E0,-6.978253686E0,4.857106626E-1,8.061344712E0
1.289533442E1,4.841773472E0,-6.858390443E0,3.106192982E-1,8.400998403E0
1.290534342E1,6.009996874E0,-6.534165258E0,3.829142725E-1,8.886056571E0
1.291535242E1,6.953537505E0,-6.389715058E0,9.534075156E-1,9.491529289E0
1.292536142E1,7.469762447E0,-6.296297017E0,1.741296436E0,9.923347239E0
1.293537042E1,7.680107844E0,-6.265761103E0,2.330925569E0,1.018219194E1
1.294537942E1,7.399687076E0,-6.234611816E0,2.483749859E0,9.989733064E0
1.295538842E1,6.388345056E0,-6.378894201E0,2.400320909E0,9.341455146E0
1.296539742E1,5.295886951E0,-6.595383267E0,2.214118520E0,8.743444393E0
1.297540642E1,4.704914128E0,-6.530471572E0,2.000571333E0,8.293706142E0
1.298541542E1,4.527454641E0,-6.077693013E0,1.919783717E0,7.818041149E0
1.299542442E1,4.683235576E0,-5.726802771E0,1.947355531E0,7.649912353E0
1.300543342E1,5.289991788E0,-5.176148838E0,1.773424255E0,7.610621755E0
1.301544242E1,6.504882987E0,-4.768428923E0,1.381900688E0,8.182974189E0
1.302545142E1,7.293915623E0,-4.460401111E0,9.505780479E-1,8.602324210E0
1.303546042E1,7.162866071E0,-4.340469455E0,6.884944403E-1,8.403591497E0
1.304546942E1,6.071982037E0,-4.360463424E0,7.746157408E-1,7.515493110E0
1.305547842E1,4.262695640E0,-3.967791318E0,9.005998492E-1,5.892794087E0
1.306548742E1,2.285139239E0,-3.280391477E0,7.256520340E-1,4.063176154E0
1.307549642E1,5.281813288E-1,-2.503834460E0,2.140253422E-1,2.567872537E0
1.308550542E1,-4.583737600E-1,-1.797939291E0,-6.529479007E-1,1.966985806E0
1.309551442E1,-5.397488755E-1,-7.089719743E-1,-1.514814478E0,1.757450714E0
1.310552342E1,1.609329164E-2,1.147688565E0,-1.779833680E0,2.117842290E0
1.311553242E1,2.575990856E-1,2.951892563E0,-2.091069860E0,3.626651368E0
1.312554142E1,-7.509666771E-1,3.944007769E0,-3.506223224E0,5.330361107E0
1.313555042E1,-3.561077709E0,4.140518069E0,-5.661657772E0,7.866354496E0
1.314556042E1,-7.820155676E0,4.158155610E0,-7.662030008E0,1.171118255E1
1.315556942E1,-1.230765103E1,4.147956896E0,-8.550542493E0,1.554977804E1
1.316557842E1,-1.598977136E1,3.240899382E0,-7.528326405E0,1.796808046E1
1.317558742E1,-1.876587850E1,2.645690251E0,-5.284315896E0,1.967439624E1
1.318559542E1,-2.113824124E1,3.401198460E0,-2.683364446E0,2.157762356E1
1.319560442E1,-2.300733179E1,4.548469534E0,-2.877332962E-1,2.345439578E1
1.320561342E1,-2.418221751E1,5.401857795E0,1.178974092E-1,2.477849089E1
1.321562242E1,-2.333674989E1,6.000776399E0,-1.264516518E0,2.412907405E1
1.322563142E1,-2.042835885E1,6.659177560E0,-2.643355458E0,2.164832140E1
1.323564042E1,-1.649356396E1,7.656109117E0,-3.414558764E0,1.850169912E1
1.324564942E1,-1.123034248E1,8.185261084E0,-4.000419951E0,1.446106673E1
1.325565842E1,-5.103732242E0,8.661826116E0,-3.816199329E0,1.075354322E1
1.326566742E1,1.027205517E0,8.926575762E0,-2.770036554E0,9.402766004E0
1.327567642E1,5.547918318E0,8.488070841E0,-1.344925089E0,1.022915284E1
1.328568542E1,7.858204678E0,7.336450024E0,6.802948898E-1,1.077207876E1
1.329569442E1,8.066283109E0,5.654012538E0,3.220060490E0,1.036347290E1
1.330570342E1,7.004424069E0,3.687452996E0,5.556624237E0,9.671366969E0
1.331571242E1,5.634302158E0,1.645850873E0,7.194079093E0,9.284878023E0
1.332572142E1,4.461710887E0,-2.776415867E-1,7.885505328E0,9.064499057E0
1.333573042E1,3.615138726E0,-2.135473323E0,7.561710498E0,8.649216148E0
1.334573942E1,3.661628183E0,-3.584974110E0,6.405679126E0,8.203187514E0
1.335574842E1,5.116774457E0,-4.406272851E0,4.865455865E0,8.322816954E0
1.336575742E1,7.179794930E0,-4.781916695E0,3.371776441E0,9.262022397E0
1.337576642E1,8.637206415E0,-5.364015784E0,2.121776366E0,1.038633405E1
1.338577542E1,9.475261522E0,-6.089811367E0,1.259924700E0,1.133374579E1
1.339578542E1,9.659926533E0,-6.708647928E0,9.372115322E-1,1.179824153E1
1.340579442E1,8.771647936E0,-7.377676987E0,1.026793288E0,1.150765961E1
1.341580342E1,7.006732550E0,-8.092898465E0,1.195915230E0,1.077123576E1
1.342581242E1,4.927787769E0,-8.732512522E0,1.497983560E0,1.013823564E1
1.343582142E1,2.912071270E0,-9.160229330E0,1.278765013E0,9.696659240E0
1.344583042E1,1.748322743E0,-9.373478454E0,4.473003030E-1,9.545617230E0
1.345583942E1,1.322266544E0,-9.290307659E0,-5.603410149E-1,9.400648236E0
1.346584842E1,1.669062565E0,-9.021450344E0,-1.328558732E0,9.270242956E0
1.347585742E1,2.739400653E0,-8.738084918E0,-1.818108677E0,9.336164262E0
1.348586642E1,3.942683374E0,-8.316545693E0,-2.244492320E0,9.473512033E0
1.349587542E1,4.827357162E0,-7.992089544E0,-2.454010921E0,9.653965095E0
1.350588442E1,5.358357434E0,-7.775077736E0,-2.360897520E0,9.733327555E0
1.351589342E1,5.639570500E0,-7.530395150E0,-1.849225219E0,9.588078037E0
1.352590242E1,5.675727927E0,-7.245120023E0,-1.108394691E0,9.270069603E0
1.353591142E1,5.466127465E0,-6.812888580E0,-5.776124839E-1,8.753721292E0
1.354592042E1,5.369225069E0,-6.322650418E0,-1.426838294E-1,8.296074061E0
1.355592942E1,5.352379240E0,-5.836054487E0,4.654628512E-1,7.932474467E0
1.356593842E1,4.853073217E0,-5.031509773E0,9.535732841E-1,7.055332186E0
1.357594742E1,4.045980286E0,-3.988226168E0,1.018512461E0,5.771765074E0
1.358595642E1,3.098571721E0,-3.102241434E0,9.668498989E-1,4.489971866E0
1.359596542E1,2.041793327E0,-2.120020886E0,1.058441854E0,3.127891895E0
1.360597442E1,1.206542544E0,-9.344932348E-1,1.079890684E0,1.869541764E0
1.361598342E1,2.343920714E-1,4.277939916E-1,7.364988383E-1,8.833899938E-1
1.362599242E1,-1.138906047E0,2.034331110E0,6.208690524E-2,2.332266030E0
1.363600142E1,-2.828273653E0,3.725648763E0,-1.214733251E0,4.832718430E0
1.364601142E1,-4.889253448E0,5.244639030E0,-3.064295343E0,7.797495994E0
1.365602042E1,-7.520408106E0,6.539270462E0,-4.927732805E0,1.111760527E1
1.366602942E1,-9.831255798E0,7.383492628E0,-5.664798896E0,1.353733727E1
1.367603842E1,-1.225305441E1,8.343725306E0,-4.735180485E0,1.556203806E1
1.368604742E1,-1.492589620E1,9.690080039E0,-3.328915473E0,1.810419031E1
1.369605642E1,-1.724069545E1,1.124315490E1,-2.367684968E0,2.071849520E1
1.370606542E1,-1.906674815E1,1.188821505E1,-1.897848180E0,2.254933191E1
1.371607442E1,-1.889592291E1,1.136999036E1,-1.660555305E0,2.211537988E1
1.372608342E1,-1.578878736E1,1.144322089E1,-1.091448217E0,1.953008883E1
1.373609242E1,-1.116792462E1,1.211836730E1,-5.646833034E-1,1.648927632E1
1.374610142E1,-6.670739259E0,1.199545064E1,-6.697799150E-1,1.374184135E1
1.375611042E1,-3.429006649E0,1.078640783E1,-9.557613122E-1,1.135861612E1
1.376611942E1,-1.739098760E0,8.694744771E0,-1.130338049E0,8.938720000E0
1.377612842E1,-1.088054566E0,6.113221280E0,-1.131160167E0,6.311486392E0
1.378613742E1,-8.880961633E-1,3.634868401E0,-1.030683879E0,3.881145751E0
1.379614642E1,-8.899374515E-1,1.289442029E0,-8.478054122E-1,1.781410517E0
1.380615542E1,-1.122191196E0,-4.567991048E-1,-4.507793963E-1,1.292741493E0
1.381616442E1,-9.885460657E-1,-1.653227720E0,-3.497231376E-1,1.957726102E0
1.382617342E1,1.496688402E-1,-2.900583245E0,-8.233605424E-1,3.018891602E0
1.383618242E1,1.922848681E0,-3.924155887E0,-1.465988181E0,4.609280619E0
1.384619142E1,3.513021197E0,-4.808287638E0,-2.312045202E0,6.387996631E0
1.385620042E1,4.730184624E0,-5.538103182E0,-2.689339131E0,7.763876505E0
1.386620942E1,5.500411445E0,-6.062612459E0,-2.085588387E0,8.447453747E0
1.387621842E1,5.399121882E0,-6.262901230E0,-6.573111662E-1,8.294968769E0
1.388622742E1,4.876641589E0,-6.586626477E0,1.001904030E0,8.256457668E0
1.389623642E1,4.387010368E0,-7.264788303E0,2.441210196E0,8.830770990E0
1.390624642E1,3.971058742E0,-7.873948306E0,3.582468578E0,9.518531954E0
1.391625542E1,3.953525282E0,-8.105749476E0,4.236561509E0,9.964034832E0
1.392626442E1,4.844768416E0,-8.119154803E0,4.408950291E0,1.043222404E1
1.393627342E1,6.090676171E0,-7.846139533E0,4.076020356E0,1.073648843E1
1.394628242E1,7.236949709E0,-7.315095407E0,3.310252622E0,1.080934014E1
1.395629142E1,8.211113963E0,-7.076847097E0,2.403255919E0,1.110314354E1
1.396630042E1,8.391442094E0,-7.045577357E0,1.631659681E0,1.107785061E1
1.397630942E1,7.677203532E0,-7.061951900E0,8.436725271E-1,1.046529512E1
1.398631842E1,6.477371253E0,-7.093243859E0,1.362295266E-1,9.606716675E0
1.399632742E1,5.297912427E0,-7.136515009E0,-1.002412299E-1,8.888631552E0
1.400633642E1,4.383378662E0,-7.261662381E0,9.038158178E-2,8.482565524E0
1.401634542E1,3.679154627E0,-7.325302307E0,3.363516518E-1,8.204228489E0
1.402635442E1,3.225457470E0,-7.283445598E0,5.554118121E-1,7.985025858E0
1.403636342E1,3.471967312E0,-7.404469514E0,6.940305110E-1,8.207460274E0
1.404637242E1,4.100378687E0,-7.126012241E0,8.075776649E-1,8.261073630E0
1.405638142E1,4.614584001E0,-6.448464957E0,9.395961729E-1,7.984981326E0
1.406639042E1,5.021939051E0,-5.836695927E0,9.095566873E-1,7.753333769E0
1.407639942E1,5.515070999E0,-5.121758623E0,6.732613472E-1,7.556566705E0
1.408640842E1,6.159090933E0,-4.396351295E0,3.855363102E-1,7.577000995E0
1.409641742E1,6.474648204E0,-3.519496404E0,-4.691688895E-2,7.369540386E0
1.410642642E1,5.447909296E0,-2.169629248E0,-5.947249087E-1,5.894124573E0
1.411643542E1,2.536899295E0,-4.177239168E-1,-1.150957743E0,2.816922972E0
1.412644442E1,-1.772163595E0,1.779849175E0,-1.761327535E0,3.067686682E0
1.413645342E1,-7.236470822E0,4.729966523E0,-2.194910270E0,8.919457627E0
1.414646242E1,-1.278181110E1,7.428048996E0,-1.747570352E0,1.488639006E1
1.415647142E1,-1.723973767E1,9.523902170E0,-8.100334954E-1,1.971216431E1
1.416648042E1,-1.949369780E1,1.130157092E1,3.213888462E-1,2.253515143E1
1.417649042E1,-1.921245375E1,1.323920253E1,1.135027735E0,2.335986196E1
1.418650012E1,-1.736473594E1,1.608317479E1,1.124227927E0,2.369528337E1
1.419650912E1,-1.494019966E1,1.857260931E1,2.421496455E-1,2.383715627E1
1.420651812E1,-1.352177975E1,1.995404909E1,-4.751682059E-1,2.410867868E1
1.421652712E1,-1.276245799E1,2.102364049E1,-3.755186411E-1,2.459704876E1
1.422653612E1,-1.161004546E1,2.117455946E1,-8.598155931E-1,2.416390711E1
1.423654512E1,-1.041207610E1,1.973725772E1,-2.500560604E0,2.245492094E1
1.424655412E1,-9.327145702E0,1.712561055E1,-3.904909776E0,1.988794871E1
1.425656312E1,-7.853185428E0,1.407584670E1,-4.177202915E0,1.665085601E1
1.426657212E1,-6.275363401E0,1.074023588E1,-3.706332486E0,1.297958986E1
1.427658112E1,-5.189157724E0,6.915278589E0,-2.930979996E0,9.129024021E0
1.428659012E1,-4.294743059E0,3.048142410E0,-1.995505013E0,5.631876273E0
1.429659912E1,-2.471529179E0,-2.735678315E-1,-9.023809111E-1,2.645295286E0
1.430660812E1,1.478210031E0,-2.843075294E0,-7.049286246E-2,3.205175700E0
1.431661712E1,5.344386097E0,-3.885490004E0,2.382565693E-1,6.611827396E0
1.432662612E1,7.108602741E0,-4.362263782E0,3.635846201E-1,8.348279584E0
1.433663513E1,7.096472107E0,-4.995065832E0,1.103093605E0,8.747994887E0
1.434664412E1,6.526058094E0,-5.595438055E0,2.233732274E0,8.881887251E0
1.435665312E1,5.749242046E0,-6.230714647E0,2.870318642E0,8.950660211E0
1.436666212E1,5.629150761E0,-7.009435133E0,3.202113047E0,9.543219956E0
1.437667112E1,6.091888298E0,-7.970894557E0,2.729612414E0,1.039697297E1
1.438668012E1,6.394122689E0,-8.532872207E0,1.846825668E0,1.082152846E1
1.439668912E1,6.215197306E0,-8.699183393E0,1.018741672E0,1.073975343E1
1.440669812E1,6.002581435E0,-8.838351218E0,6.440425913E-1,1.070337456E1
1.441670712E1,5.843979803E0,-8.885189170E0,7.761732928E-1,1.066307327E1
1.442671612E1,6.243703067E0,-8.845774258E0,1.247666158E0,1.089900092E1
1.443672613E1,6.961714252E0,-8.549670088E0,1.793406676E0,1.117043560E1
1.444673512E1,7.127502111E0,-8.195779055E0,2.030743697E0,1.104970591E1
1.445674412E1,6.260789216E0,-8.089871362E0,2.125834919E0,1.044809429E1
1.446675312E1,4.826397049E0,-8.016456646E0,2.261819082E0,9.626708222E0
1.447676212E1,3.717826942E0,-7.843953844E0,2.431041011E0,9.014422304E0
1.448677112E1,3.016340573E0,-7.814814245E0,2.712296762E0,8.804895562E0
1.449678012E1,2.619547350E0,-7.799675218E0,2.981222781E0,8.751265686E0
1.450678912E1,2.327322223E0,-7.762791567E0,3.049203680E0,8.658810814E0
1.451679812E1,2.519528972E0,-7.695617584E0,2.836164763E0,8.579882680E0
1.452680712E1,3.930819374E0,-7.817191722E0,2.306375742E0,9.048712419E0
1.453681612E1,5.797559343E0,-7.684251181E0,1.401818497E0,9.727512820E0
1.454682512E1,6.401859725E0,-7.508782672E0,1.516335046E-1,9.868567164E0
1.455683412E1,5.416270012E0,-7.996874905E0,-1.269104244E0,9.741489346E0
1.456684312E1,4.053228495E0,-8.811178622E0,-2.111978918E0,9.926025634E0
1.457685212E1,2.602513241E0,-9.065600916E0,-1.898086746E0,9.620859027E0
1.458686112E1,1.070110631E0,-8.586930885E0,-1.123897998E0,8.726033778E0
1.459687012E1,-3.567555839E-1,-7.726494391E0,-5.512810466E-1,7.754347227E0
1.460687912E1,-5.975778383E-1,-6.258567274E0,2.578797519E-1,6.292317980E0
1.461688812E1,-1.815624779E-1,-3.983563013E0,1.278822316E0,4.187735155E0
1.462689712E1,-3.359897822E-1,-1.249453506E0,1.709381748E0,2.143830487E0
1.463690613E1,-7.345798552E-1,1.558421550E0,1.339091029E0,2.182074719E0
1.464691512E1,-3.802245533E-1,4.514711219E0,8.919120562E-1,4.617650400E0
1.465692412E1,-2.700361133E-1,8.017325542E0,7.392051490E-1,8.055858278E0
1.466693312E1,-1.806480904E0,1.122109920E1,1.570047569E-1,1.136666578E1
1.467694212E1,-4.854497014E0,1.300111093E1,-1.249286714E0,1.393397803E1
1.468695112E1,-7.953668075E0,1.369857383E1,-2.184154755E0,1.599006856E1
1.469696012E1,-1.135941158E1,1.444984748E1,-2.831430565E0,1.859707834E1
1.470696912E1,-1.538115223E1,1.524635754E1,-3.775444236E0,2.198374948E1
1.471697812E1,-1.825715320E1,1.557209656E1,-4.343084915E0,2.438598411E1
1.472698812E1,-1.824522254E1,1.497225878E1,-4.584176141E0,2.404311438E1
1.473699713E1,-1.564947511E1,1.469574044E1,-4.591985975E0,2.195352349E1
1.474700612E1,-1.050559296E1,1.546425871E1,-4.360863959E0,1.919708090E1
1.475701512E1,-5.921472952E0,1.600740540E1,-4.354052537E0,1.761416030E1
1.476702412E1,-3.979499783E0,1.505226974E1,-4.866721495E0,1.631233340E1
1.477703312E1,-4.195007102E0,1.282309361E1,-5.703422095E0,1.464782708E1
1.478704212E1,-4.755535812E0,9.938332350E0,-6.324613913E0,1.270379124E1
1.479705112E1,-4.765907019E0,7.130649667E0,-6.234998317E0,1.060354839E1
1.480706012E1,-3.985146439E0,4.156369870E0,-5.277003368E0,7.810478038E0
1.481706912E1,-1.615183396E0,1.364718499E0,-3.515354529E0,4.102315376E0
1.482707812E1,1.865361781E0,-8.006083685E-1,-1.360699415E0,2.443778065E0
1.483708712E1,5.267085321E0,-2.511392571E0,1.035780605E0,5.926391979E0
1.484709612E1,7.715615062E0,-3.937339019E0,3.113187422E0,9.204634173E0
1.485710512E1,9.335617148E0,-5.370708507E0,4.615416645E0,1.171752227E1
1.486711412E1,9.546143224E0,-6.645992673E0,5.971293569E0,1.307495376E1
1.487712312E1,8.263405613E0,-7.673718592E0,7.261651272E0,1.341273307E1
1.488713212E1,6.374145092E0,-8.400191283E0,7.922917567E0,1.318960053E1
1.489714112E1,5.519357593E0,-8.638580511E0,7.954432890E0,1.297541460E1
1.490715013E1,5.674891191E0,-8.567894690E0,7.216597306E0,1.255756689E1
1.491715912E1,5.760427769E0,-8.265088441E0,5.645736973E0,1.154853069E1
1.492716812E1,5.719247584E0,-7.744023174E0,3.692650878E0,1.031093392E1
1.493717713E1,5.597501537E0,-7.144297653E0,1.544021320E0,9.206357274E0
1.494718612E1,5.296928340E0,-6.518510508E0,-5.262251428E-1,8.415779345E0
1.495719512E1,5.222706124E0,-5.874939641E0,-1.772027501E0,8.058018150E0
1.496720412E1,5.734318782E0,-5.220133933E0,-1.938323776E0,7.993078833E0
1.497721312E1,5.885915449E0,-4.890064457E0,-1.378411216E0,7.775393787E0
1.498722212E1,5.537575178E0,-5.012858909E0,-5.557266846E-1,7.490148560E0
1.499723112E1,4.997047454E0,-5.304977033E0,5.757750329E-1,7.310593783E0
1.500724012E1,4.677874848E0,-5.292449958E0,2.059467705E0,7.357577514E0
1.501725012E1,4.674722030E0,-5.292364588E0,3.532636267E0,7.895674004E0
1.502725912E1,4.949873287E0,-5.493701765E0,4.565829625E0,8.690730971E0
1.503726813E1,5.484442114E0,-5.515605435E0,5.150856707E0,9.329112146E0
1.504727712E1,6.169289646E0,-5.269121321E0,5.089346337E0,9.577328457E0
1.505728612E1,6.598089944E0,-4.816289552E0,4.089885274E0,9.135567717E0
1.506729512E1,6.953174978E0,-4.349556028E0,2.786323681E0,8.661921240E0
1.507730412E1,7.024655435E0,-4.245583763E0,2.044325025E0,8.458725098E0
1.508731312E1,6.636249458E0,-4.202831261E0,1.771794928E0,8.052506116E0
1.509732212E1,5.533949904E0,-4.070481874E0,1.837889807E0,7.111347493E0
1.510733112E1,3.776828856E0,-4.222751555E0,1.710033567E0,5.917793652E0
1.511734012E1,1.878817393E0,-4.382075318E0,1.538727690E0,5.010012155E0
1.512734912E1,3.097550797E-1,-4.267372828E0,1.728011416E0,4.614373469E0
1.513735812E1,-1.112366120E0,-4.077048297E0,1.733765807E0,4.567890659E0
1.514736712E1,-2.142396426E0,-3.421072562E0,1.698429913E0,4.379299498E0
1.515737612E1,-2.367130067E0,-2.047113708E0,1.344599107E0,3.406160015E0
1.516738512E1,-2.225217558E0,-2.583943069E-1,1.220430851E-2,2.240203059E0
1.517739412E1,-2.405035227E0,1.425179878E0,-2.083201261E0,3.486410708E0
1.518740467E1,-3.344095722E0,3.254548538E0,-4.356078305E0,6.383610309E0
1.519741367E1,-5.136687149E0,4.673561942E0,-6.614242877E0,9.590409007E0
1.520742267E1,-7.631928542E0,5.427538766E0,-8.989808137E0,1.298157004E1
1.521743167E1,-1.200777190E1,5.426558772E0,-1.090304926E1,1.710294154E1
1.522744067E1,-1.785716973E1,5.372920509E0,-1.225350698E1,2.231356581E1
1.523744967E1,-2.376042276E1,5.775477333E0,-1.291605499E1,2.765390216E1
1.524745867E1,-2.774999671E1,6.551319820E0,-1.274029704E1,3.122974988E1
1.525746767E1,-2.837850690E1,6.800921084E0,-1.193533893E1,3.152847121E1
1.526747667E1,-2.524758722E1,7.477969015E0,-1.059753926E1,2.838430057E1
1.527748567E1,-1.862278310E1,8.306987250E0,-8.862142954E0,2.223402045E1
1.528749467E1,-1.091001563E1,8.902950672E0,-5.822038711E0,1.523768705E1
1.529750367E1,-4.249247628E0,9.289165113E0,-2.176007684E0,1.044412291E1
1.530751367E1,-2.357755226E-1,9.430385896E0,8.996224871E-1,9.476132590E0
1.531752267E1,2.009302104E0,8.504417317E0,3.338225702E0,9.354472710E0
1.532753167E1,3.312460531E0,6.885326811E0,5.629043173E0,9.490323867E0
1.533754067E1,4.421354574E0,5.066636921E0,7.928404595E0,1.039609472E1
1.534754967E1,5.624907437E0,2.851570129E0,9.563131725E0,1.145532733E1
1.535755867E1,6.713568360E0,4.222180867E-1,9.757766823E0,1.185176281E1
1.536756767E1,7.315975998E0,-1.748192934E0,8.722547697E0,1.151792176E1
1.537757667E1,7.258718308E0,-3.584987558E0,6.488627143E0,1.037513419E1
1.538758567E1,6.896531830E0,-5.129764631E0,3.766499165E0,9.384196951E0
1.539759467E1,6.416395903E0,-6.203764830E0,1.639461036E0,9.074396230E0
1.540760367E1,5.716820405E0,-6.826701458E0,1.794137724E-1,8.906069707E0
1.541761267E1,4.890788927E0,-7.467419468E0,-7.170162812E-1,8.955237696E0
1.542762167E1,4.257691008E0,-8.101106202E0,-9.169638669E-1,9.197645196E0
1.543763067E1,4.026896728E0,-8.548818734E0,-3.188015994E-1,9.455148516E0
1.544763967E1,3.958964362E0,-8.615699771E0,3.021814737E-1,9.486569190E0
1.545764867E1,4.328989617E0,-8.224640912E0,7.682987013E-1,9.326046972E0
1.546765767E1,5.528281029E0,-7.745577949E0,1.438668527E0,9.624221320E0
1.547766667E1,6.800271458E0,-7.487124585E0,2.203150166E0,1.035155047E1
1.548767567E1,7.802759040E0,-7.240552763E0,2.976030746E0,1.105284633E1
1.549768467E1,8.448516181E0,-6.962601859E0,3.494318586E0,1.149197601E1
1.550769367E1,8.415735521E0,-6.787695851E0,3.519349054E0,1.137027867E1
1.551770267E1,7.974931474E0,-6.746213365E0,3.216015387E0,1.092948680E1
1.552771167E1,7.165145901E0,-6.578470781E0,2.668384172E0,1.008641996E1
1.553772067E1,6.264244920E0,-6.155842804E0,1.822073966E0,8.969677730E0
1.554772967E1,5.747971446E0,-5.945502085E0,9.963996072E-1,8.329524774E0
1.555773867E1,5.768142001E0,-6.015117865E0,4.313106532E-1,8.345006528E0
1.556774767E1,5.940751222E0,-5.958058396E0,6.576012611E-2,8.413994850E0
1.557775667E1,6.084605591E0,-5.931413219E0,-9.387339279E-2,8.497817378E0
1.558776567E1,5.899932979E0,-5.981676469E0,9.248760268E-2,8.402274484E0
1.559777467E1,5.714034791E0,-5.903931305E0,7.067903781E-1,8.246584207E0
1.560778467E1,5.964592659E0,-5.769363484E0,1.511191689E0,8.434786359E0
1.561779367E1,6.177165846E0,-5.307181433E0,2.183661397E0,8.431603035E0
1.562780267E1,5.816192080E0,-4.508800269E0,2.573059062E0,7.796024828E0
1.563781167E1,5.098521788E0,-3.588344445E0,2.528471119E0,6.727875331E0
1.564782067E1,4.014690666E0,-2.717737888E0,2.233172256E0,5.337686643E0
1.565782967E1,2.474099030E0,-1.517883389E0,1.877611113E0,3.456958126E0
1.566783867E1,1.016121535E0,2.464244717E-1,1.443118551E0,1.782082811E0
1.567784767E1,-1.873547298E-1,3.094083399E0,9.446144727E-1,3.240486132E0
1.568785667E1,-2.415515192E0,6.721639271E0,5.537430167E-2,7.142703581E0
1.569786567E1,-5.531812747E0,9.908149023E0,-1.475368284E0,1.144329852E1
1.570787467E1,-8.308307551E0,1.245933482E1,-2.599640212E0,1.519937919E1
1.571788367E1,-1.074110010E1,1.373699120E1,-2.699637247E0,1.764551501E1
1.572789267E1,-1.313622488E1,1.349099884E1,-2.460682594E0,1.899006089E1
1.573790167E1,-1.526808813E1,1.223669741E1,-2.949541105E0,1.978764946E1
1.574791067E1,-1.737136083E1,1.125843718E1,-3.776601985E0,2.104232182E1
1.575791967E1,-1.951470802E1,1.110843271E1,-4.230925086E0,2.284998541E1
1.576792867E1,-2.130446121E1,1.050252200E1,-4.942367216E0,2.426128664E1
1.577793767E1,-2.193083366E1,8.874385269E0,-5.824974014E0,2.436486202E1
1.578794667E1,-2.113484751E1,7.357644426E0,-6.614887240E0,2.333609745E1
1.579795567E1,-1.917977483E1,6.940756661E0,-7.399657840E0,2.169776029E1
1.580796467E1,-1.657302294E1,6.312374521E0,-7.796998948E0,1.937277353E1
1.581797367E1,-1.404882672E1,5.054919101E0,-7.506117511E0,1.671118007E1
1.582798267E1,-1.201521657E1,3.882700297E0,-6.370143843E0,1.414282587E1
1.583799167E1,-1.027864030E1,3.073903488E0,-4.396368544E0,1.159428245E1
1.584800067E1,-8.689079404E0,2.655509480E0,-2.339698147E0,9.382218229E0
1.585800967E1,-6.379246203E0,2.593303292E0,-5.142380583E-1,6.905392448E0
1.586801867E1,-2.727890409E0,1.723732277E0,1.240986299E0,3.457265688E0
1.587802767E1,1.751558592E0,4.291394359E-1,2.939271055E0,3.448395640E0
1.588803667E1,6.132030019E0,-6.897942764E-1,4.238195221E0,7.485980699E0
1.589804567E1,9.939864321E0,-1.535845451E0,4.905237397E0,1.119022242E1
1.590805467E1,1.246276012E1,-2.424998791E0,5.088570997E0,1.367825149E1
1.591806467E1,1.300625648E1,-3.481985931E0,5.134064673E0,1.440991164E1
1.592807367E1,1.188703625E1,-4.446877086E0,5.415049698E0,1.379851839E1
1.593808267E1,9.923386867E0,-5.202275952E0,5.619829130E0,1.253474218E1
1.594809167E1,8.203893237E0,-5.933795375E0,5.688402936E0,1.161342842E1
1.595810067E1,7.080607442E0,-6.478021463E0,5.819073004E0,1.122325151E1
1.596810967E1,6.676682369E0,-6.827669756E0,5.557774969E0,1.104916397E1
1.597811867E1,6.931125128E0,-6.798895608E0,4.754076347E0,1.081049115E1
1.598812767E1,7.587179800E0,-6.306558881E0,3.507339166E0,1.047088393E1
1.599813667E1,7.997947285E0,-6.056136668E0,2.399496160E0,1.031511192E1
1.600814567E1,7.857397177E0,-6.043104978E0,1.347540548E0,1.000368301E1
1.601815467E1,7.217504793E0,-6.076896622E0,3.202002534E-1,9.440528386E0
1.602816367E1,6.470306647E0,-6.298347051E0,-3.194304675E-1,9.035268646E0
1.603817267E1,5.600246805E0,-6.562050045E0,-5.070050526E-1,8.641777548E0
1.604818167E1,4.824606047E0,-6.744842777E0,-3.776283896E-1,8.301345120E0
1.605819067E1,4.592146481E0,-6.824645576E0,-1.197889835E-2,8.225797228E0
1.606819967E1,4.950596588E0,-6.805543892E0,5.835120687E-1,8.435894771E0
1.607820867E1,5.605798151E0,-6.792339125E0,1.174264452E0,8.884803921E0
1.608821767E1,6.552968150E0,-6.819918687E0,1.613815148E0,9.594638180E0
1.609822667E1,7.461276383E0,-6.723571191E0,2.345401229E0,1.031396925E1
1.610823567E1,7.908019447E0,-6.827720627E0,3.335355596E0,1.096718457E1
1.611824467E1,7.873907375E0,-6.777639225E0,4.319461871E0,1.125133600E1
1.612825367E1,7.559627720E0,-6.524209789E0,4.995049460E0,1.116529461E1
1.613826267E1,6.818248138E0,-6.449244391E0,5.243155006E0,1.075043884E1
1.614827167E1,5.851960083E0,-6.479469818E0,4.878541057E0,1.000145633E1
1.615828067E1,5.110711479E0,-6.332317035E0,3.999842831E0,9.067323394E0
1.616828967E1,4.535760611E0,-5.979769108E0,3.041732107E0,8.098326809E0
1.617829867E1,4.226507807E0,-5.357461640E0,2.223749615E0,7.177104278E0
1.618830600E1,4.025265940E0,-4.136725565E0,1.273471821E0,5.910752470E0
1.619831500E1,3.127507253E0,-2.248720441E0,2.747109622E-1,3.861801568E0
1.620832400E1,1.461032081E0,1.540156603E-2,-6.849843568E-1,1.613708622E0
1.621833300E1,-2.612383926E-1,2.036571178E0,-1.835976891E0,2.754392638E0
1.622834300E1,-2.411544347E0,4.311873062E0,-2.508493229E0,5.540788186E0
1.623835200E1,-5.224429298E0,6.575534309E0,-2.442164754E0,8.746226708E0
1.624836100E1,-8.174134417E0,7.787548093E0,-1.977282458E0,1.146176359E1
1.625837000E1,-1.124614750E1,8.097642896E0,-1.557460268E0,1.394536972E1
1.626837900E1,-1.432885339E1,7.848324637E0,-2.134791245E0,1.647633371E1
1.627838800E1,-1.670807725E1,7.549211490E0,-3.736497394E0,1.871127607E1
1.628839700E1,-1.759799073E1,7.966278765E0,-5.384821347E0,2.005360755E1
1.629840600E1,-1.775693910E1,8.954657600E0,-7.207613643E0,2.115288333E1
1.630841500E1,-1.822108874E1,9.564218137E0,-9.524978642E0,2.267614521E1
1.631842400E1,-1.930183662E1,9.798186870E0,-1.164068721E1,2.457785511E1
1.632843300E1,-1.939236088E1,9.793219076E0,-1.292195951E1,2.527741755E1
1.633844200E1,-1.729300464E1,9.503886566E0,-1.255879830E1,2.339006806E1
1.634845100E1,-1.462309346E1,8.675374115E0,-1.040966705E1,1.993635239E1
1.635846000E1,-1.262583896E1,6.850362216E0,-7.652438235E0,1.627572066E1
1.636846900E1,-1.142172184E1,5.348463945E0,-5.202222158E0,1.364276042E1
1.637847800E1,-9.736336777E0,4.369634782E0,-2.891086490E0,1.105659726E1
1.638848700E1,-6.400556965E0,3.082711734E0,-3.954849091E-1,7.115240643E0
1.639849600E1,-1.651858302E0,1.912291533E0,2.504955372E0,3.558130994E0
1.640850500E1,3.429384379E0,1.437787644E0,4.706523574E0,5.998272641E0
1.641851400E1,8.065131792E0,1.387226771E0,4.512359761E0,9.345166642E0
1.642852300E1,1.131596209E1,8.964524192E-1,2.385717488E0,1.159940830E1
1.643853200E1,1.248459362E1,-2.832391262E-1,1.940921840E-1,1.248931440E1
1.644854100E1,1.159953333E1,-1.904968480E0,-7.493209782E-1,1.177877584E1
1.645855000E1,9.311356466E0,-3.509081928E0,-4.274659628E-1,9.959806342E0
1.646855900E1,6.664100915E0,-4.838273329E0,6.279058841E-1,8.259140126E0
1.647856800E1,4.425079835E0,-5.870318002E0,2.072549973E0,7.637894237E0
1.648857700E1,3.337042226E0,-6.590793203E0,3.640131187E0,8.235591109E0
1.649858600E1,3.400956386E0,-7.027636930E0,4.797478183E0,9.163513632E0
1.650859500E1,4.275848951E0,-7.305642799E0,5.460807669E0,1.007351584E1
1.651860400E1,5.521922767E0,-7.456227313E0,5.586525729E0,1.083033824E1
1.652861300E1,6.650043624E0,-7.490002584E0,5.215726887E0,1.129278645E1
1.653862200E1,7.195411674E0,-7.434931169E0,4.472376208E0,1.127183657E1
1.654863100E1,6.690890518E0,-7.528784242E0,3.723230062E0,1.073839142E1
1.655864100E1,5.614562543E0,-7.823485665E0,3.159864282E0,1.013484005E1
1.656865000E1,4.647179890E0,-7.964870170E0,2.850049853E0,9.651850699E0
1.657865900E1,4.022116629E0,-7.941637428E0,2.838892196E0,9.343785963E0
1.658866800E1,4.026873339E0,-7.890400617E0,2.955755818E0,9.338662818E0
1.659867700E1,4.780311635E0,-7.596618376E0,3.192680318E0,9.526447275E0
1.660868600E1,5.767922730E0,-7.366372565E0,3.400019954E0,9.954522243E0
1.661869500E1,6.332191320E0,-7.208492480E0,3.759538932E0,1.030500576E1
1.662870400E1,6.740729846E0,-6.859951065E0,4.175335314E0,1.048474093E1
1.663871300E1,7.197872767E0,-6.515271735E0,4.644767621E0,1.076252779E1
1.664872200E1,7.244388537E0,-6.070115606E0,5.114906271E0,1.074661504E1
1.665873100E1,6.876456585E0,-5.667587433E0,5.165282958E0,1.029987138E1
1.666874000E1,6.180644354E0,-5.163750402E0,4.713524445E0,9.331773440E0
1.667874900E1,5.186989576E0,-4.261876445E0,3.723385598E0,7.676721436E0
1.668875800E1,4.172563149E0,-3.179455671E0,2.524932092E0,5.821898631E0
1.669876700E1,3.427918482E0,-2.070426557E0,1.278878449E0,4.203905486E0
1.670877600E1,2.442334031E0,-1.076445504E0,1.207414949E-1,2.671761395E0
