"Time (s)","Linear Acceleration x (m/s^2)","Linear Acceleration y (m/s^2)","Linear Acceleration z (m/s^2)","Absolute acceleration (m/s^2)"
2.077041674E-3,6.935179295E-1,2.112508383E-1,-8.397537231E-1,1.109405404E0
1.208604166E-2,2.022484651E-1,1.010773087E-1,-1.640390743E0,1.655899409E0
2.209504167E-2,-1.805998801E-1,-7.783257991E-2,-1.428670081E0,1.442141611E0
3.210404167E-2,-1.879933919E-1,-1.650359076E-1,-2.809943801E-1,3.762129820E-1
4.211304167E-2,-8.630943462E-2,-2.371762231E-1,1.147301479E0,1.174735103E0
5.212204167E-2,3.775824890E-2,-2.118104169E-1,2.066900686E0,2.078068282E0
6.213204167E-2,1.412919728E-1,-2.494080135E-1,1.233434474E0,1.266305011E0
7.214104167E-2,5.310634214E-1,-2.460350472E-1,-6.596243978E-2,5.889929078E-1
8.215004166E-2,5.938677800E-1,-7.524167866E-2,-6.068866056E-1,8.524386209E-1
9.215904167E-2,5.249826095E-1,6.479708970E-2,-3.967014223E-1,6.611939364E-1
1.021680417E-1,3.494926111E-1,2.052957416E-1,-2.274338847E-1,4.647769343E-1
1.121770417E-1,3.334877586E-1,2.949092916E-1,-6.155627042E-1,7.596729679E-1
1.221870417E-1,9.708468363E-2,2.359214106E-1,-8.698645449E-1,9.065035434E-1
1.321960417E-1,-8.101214960E-2,-1.464259744E-2,-6.735425252E-1,6.785550142E-1
1.422050417E-1,5.127775700E-1,-3.483124968E-1,-8.166168755E-1,1.025244143E0
1.522140417E-1,1.045057651E0,3.332912922E-3,-1.054204450E0,1.484420299E0
1.622230417E-1,1.567403458E0,4.377594012E-1,-1.015409929E0,1.918187743E0
1.722320417E-1,1.396669731E0,2.505031970E-1,-4.774269122E-1,1.497122122E0
1.822420417E-1,6.418021575E-1,-2.378632709E-1,-9.975466847E-2,6.916935297E-1
1.922510417E-1,4.719860049E-1,-1.544512779E-1,-1.710942078E-1,5.252610913E-1
2.022600417E-1,6.595081113E-1,2.632369709E-1,8.110672832E-3,7.101481780E-1
2.122690417E-1,1.103739284E0,4.877460784E-1,-2.306194478E-1,1.228544657E0
2.222780417E-1,1.244293484E0,7.973847985E-3,-4.669820309E-1,1.329060598E0
2.322870417E-1,1.766140817E0,-3.284980372E-1,2.634831387E-1,1.815650767E0
2.422970417E-1,2.377052792E0,-1.208634093E-1,9.071399599E-1,2.547133849E0
2.523060417E-1,2.475217310E0,4.615265787E-2,9.058623433E-1,2.636174764E0
2.623150417E-1,2.044002405E0,-4.438478145E-1,4.990084004E-1,2.150338601E0
2.723240417E-1,1.107843444E0,-1.875397941E0,-6.089863408E-1,2.261702655E0
2.823330417E-1,1.626262262E0,-1.378835724E0,-1.567839661E0,2.646514330E0
2.923420417E-1,2.243065161E0,-4.564111421E-1,-2.501427746E0,3.390692144E0
3.023520417E-1,2.811703228E0,-7.582403210E-1,-3.335434826E0,4.427835691E0
3.123610417E-1,4.043145848E0,-5.441626462E-1,-4.038298214E0,5.740295620E0
3.223700417E-1,5.024074454E0,-4.009041086E-1,-4.523159276E0,6.772076348E0
3.323790417E-1,4.848717918E0,-9.139630759E-1,-4.407583796E0,6.616055386E0
3.423880417E-1,3.590133108E0,-1.403062931E0,-3.471458019E0,5.187355983E0
3.523970417E-1,2.340931032E0,-2.491876904E0,-2.152850663E0,4.040318624E0
3.624070417E-1,2.405402432E0,-2.812676205E0,5.522227407E-2,3.701372420E0
3.724160417E-1,3.026955609E0,-3.250468058E0,8.556160498E-1,4.523282180E0
3.824250417E-1,3.622217950E0,-4.147959528E0,9.247237068E-1,5.584007974E0
3.924340417E-1,4.005768107E0,-4.830420519E0,2.796337330E-1,6.281507425E0
4.024430417E-1,2.317526675E0,-4.247694608E0,-1.307459639E0,5.012313845E0
4.124520417E-1,-2.979191458E-1,-3.964977930E0,-2.935711563E0,4.942490079E0
4.224620417E-1,-6.547270623E-1,-5.496754596E0,-3.053473316E0,6.321920429E0
4.324710417E-1,2.843068278E-1,-6.626224991E0,-2.506638200E0,7.090199085E0
4.424800417E-1,-3.751485854E-2,-5.958566519E0,-2.157209178E0,6.337150287E0
4.524890417E-1,-9.061734152E-1,-5.724611235E0,-1.171846336E0,5.913167331E0
4.624980417E-1,-1.666886816E0,-6.109774931E0,-4.062259519E-1,6.346091781E0
4.725070417E-1,-2.215573161E0,-6.437679768E0,-2.705033058E-1,6.813637594E0
4.825170417E-1,-2.397992256E0,-6.100919908E0,-7.260452592E-1,6.595356874E0
4.925260417E-1,-2.075536439E0,-5.583956462E0,-8.682144606E-1,6.020150964E0
5.025350417E-1,-1.822833227E0,-5.632105359E0,-4.281723064E-1,5.935205412E0
5.125440417E-1,-1.984678309E0,-5.345988818E0,2.757681388E-1,5.709167409E0
5.225530417E-1,-1.693104562E0,-4.690042319E0,9.859200811E-1,5.082827798E0
5.325620417E-1,-1.022202054E0,-4.043587021E0,1.695591382E0,4.502279775E0
5.425720417E-1,-4.222578478E-1,-3.326159973E0,2.646744504E0,4.271638833E0
5.525810417E-1,2.015558624E-1,-2.675215474E0,3.800928741E0,4.652360894E0
5.625900417E-1,4.195213509E-1,-2.024263813E0,4.594487706E0,5.038150397E0
5.725990417E-1,5.357897258E-1,-1.578036035E0,5.258178257E0,5.515950230E0
5.826080417E-1,6.236423868E-1,-1.158007146E0,5.973399736E0,6.116487127E0
5.926170417E-1,1.037548656E0,-5.233707514E-1,6.617310911E0,6.718573349E0
6.026270417E-1,1.516594663E0,4.701940526E-1,7.093739119E0,7.269269324E0
6.126360417E-1,1.585259101E0,1.081846285E0,6.926266676E0,7.187253152E0
6.226450417E-1,1.328230119E0,1.445641624E0,6.149321405E0,6.455093237E0
6.326540417E-1,1.354255491E0,1.843464835E0,5.779752817E0,6.215940247E0
6.426630417E-1,2.073447813E0,2.378448230E0,5.990429751E0,6.770631464E0
6.526720417E-1,3.026441638E0,2.944551091E0,6.688096134E0,7.909510732E0
6.626820417E-1,3.410477407E0,3.274125016E0,7.455844905E0,8.828412882E0
6.726910417E-1,3.498484434E0,3.680455925E0,7.572840089E0,9.117733061E0
6.827000417E-1,3.601784855E0,4.114504976E0,6.798417306E0,8.724705336E0
6.927090417E-1,3.905764639E0,4.434159976E0,5.549870703E0,8.106653868E0
7.027180417E-1,4.190725186E0,4.576924132E0,4.270576517E0,7.533142497E0
7.127270417E-1,4.258889102E0,4.615502891E0,2.894656507E0,6.915203513E0
7.227373333E-1,4.182774727E0,4.615238305E0,1.647078204E0,6.442739761E0
7.327463333E-1,4.064683775E0,4.505617629E0,8.384515482E-1,6.125785289E0
7.427553333E-1,4.440118874E0,4.503377269E0,8.797554025E-1,6.385063195E0
7.527643333E-1,5.196144562E0,4.755593992E0,1.870444180E0,7.287945798E0
7.627733333E-1,6.096985901E0,5.240367054E0,3.140510291E0,8.631192781E0
7.727823333E-1,6.643287751E0,5.779676219E0,3.974615604E0,9.661029890E0
7.827923333E-1,6.620977115E0,5.955605489E0,3.687290151E0,9.638603807E0
7.928013333E-1,5.944989869E0,5.744744368E0,2.576590488E0,8.659319311E0
8.028103333E-1,5.274969122E0,5.671626105E0,1.274458831E0,7.849642490E0
8.128193333E-1,5.202235606E0,5.746942921E0,-1.805134875E-1,7.753914712E0
8.228283333E-1,5.553293079E0,5.845134044E0,-1.677067988E0,8.235120706E0
8.328373333E-1,6.135457072E0,6.108766286E0,-2.736716781E0,9.080224543E0
8.428473333E-1,6.940888224E0,6.341633989E0,-3.122855208E0,9.906789370E0
8.528563333E-1,7.173225583E0,6.276796553E0,-3.244115936E0,1.006864581E1
8.628653333E-1,6.340692587E0,5.710500734E0,-3.293824870E0,9.146774480E0
8.728743333E-1,4.286182151E0,4.754358476E0,-2.755434887E0,6.969053262E0
8.828833333E-1,2.072899929E0,3.637662200E0,-1.980220538E0,4.631498006E0
8.928923333E-1,1.853146362E-1,3.205977764E0,-1.734390582E0,3.649759667E0
9.029023333E-1,-1.187837886E0,2.951428001E0,-1.686752877E0,3.600975057E0
9.129113333E-1,-1.392249529E0,3.122008531E0,-1.712833067E0,3.823492269E0
9.229203333E-1,-3.974007493E-1,3.431408977E0,-2.603816001E0,4.325777698E0
9.329293333E-1,4.928723323E-1,3.719156891E0,-3.853577070E0,5.378206704E0
9.429383333E-1,3.920166332E-1,3.358009171E0,-4.878719105E0,5.935638360E0
9.529473333E-1,-2.428354508E-1,2.559465455E0,-5.186787263E0,5.789006355E0
9.629573333E-1,-1.310037677E0,2.461131952E0,-3.435742056E0,4.424668652E0
9.729663333E-1,-2.093041248E0,2.265756450E0,-1.032108407E0,3.252648417E0
9.829753333E-1,-1.994429711E0,1.186072027E0,1.408651992E-1,2.324727883E0
9.929843333E-1,-2.375053629E0,2.839732441E-1,-5.188475646E-2,2.392532669E0
1.002993333E0,-3.238935887E0,8.581211431E-1,-2.948668993E-1,3.363632570E0
1.013002333E0,-3.410501965E0,1.038675561E0,-6.833876283E-1,3.630067386E0
1.023012333E0,-3.396324221E0,4.519593644E-1,-1.443373489E0,3.717877421E0
1.033021333E0,-3.442823619E0,4.675725996E-3,-2.373464355E0,4.181673036E0
1.043030333E0,-2.447164416E0,-4.301334625E-1,-2.243542878E0,3.347702663E0
1.053039333E0,-1.279634494E0,-1.029714849E0,-4.804260953E-1,1.711311293E0
1.063048333E0,-1.086489851E0,-2.221390848E-1,1.265696486E0,1.682793382E0
1.073057333E0,-1.244785089E0,-2.520402838E-1,2.269848186E0,2.601004615E0
1.083067333E0,-1.797972035E0,-5.326756449E-1,2.864072646E0,3.423354919E0
1.093076333E0,-2.567861472E0,-1.216653257E0,3.261815457E0,4.325921609E0
1.103085333E0,-2.600451513E0,-3.080818698E0,3.122962797E0,5.099675337E0
1.113094333E0,-1.709466240E0,-4.419267118E0,2.618336391E0,5.413675475E0
1.123103333E0,5.114290559E-1,-3.434742767E0,2.527091761E0,4.294788740E0
1.133112333E0,2.934848514E0,-1.294201955E0,2.309995168E0,3.952767660E0
1.143122333E0,3.935136373E0,-8.175559384E-1,1.637959617E0,4.340116092E0
1.153131333E0,4.045777388E0,-1.486397302E0,2.757734013E-1,4.318997867E0
1.163140333E0,3.756368279E0,-1.802229685E0,-4.932219227E-1,4.195426362E0
1.173149333E0,2.545465466E0,-1.317226244E0,-1.135155058E-1,2.868338402E0
1.183158333E0,1.857603110E0,-9.611179465E-1,3.691148071E-1,2.123836802E0
1.193167333E0,-7.502270043E-2,-1.865308279E0,-1.726893282E-1,1.874786650E0
1.203176333E0,-1.957976999E0,-2.703147623E0,-8.562873101E-1,3.445853879E0
1.213186333E0,-1.934774662E0,-2.418589950E0,-1.666351211E0,3.517052274E0
1.223195333E0,-1.318567595E0,-2.238120609E0,-1.751788387E0,3.133140105E0
1.233204333E0,-1.033375499E0,-2.427392641E0,-1.579235299E0,3.074749434E0
1.243213333E0,-1.274922808E0,-2.596515752E0,-1.537077459E0,3.275657084E0
1.253222333E0,-1.643580399E0,-1.758880475E0,-1.220789870E0,2.699137818E0
1.263231333E0,-1.540964688E0,-8.771607006E-1,-8.924464917E-1,1.985055114E0
1.273241333E0,-9.755880511E-1,1.752673656E-1,-9.073588651E-2,9.953510416E-1
1.283250333E0,-9.933542311E-1,2.148206512E0,8.739060672E-1,2.522945830E0
1.293259333E0,-1.604182445E0,3.844824958E0,1.771999873E0,4.527257870E0
1.303268333E0,-2.361207422E0,2.999723371E0,1.938826783E0,4.281669077E0
1.313277333E0,-2.604980766E0,1.958426650E0,1.349903262E0,3.527548519E0
1.323287333E0,-2.838093467E0,1.660850151E0,6.659288657E-1,3.355094485E0
1.333296333E0,-2.924911755E0,1.338784928E0,3.554417145E-1,3.236323944E0
1.343305333E0,-3.032644950E0,7.936940360E-1,6.972605860E-1,3.211395014E0
1.353314333E0,-3.043366989E0,3.655451185E-1,9.714420828E-1,3.215494609E0
1.363323333E0,-1.915778228E0,-9.771855104E-1,-5.652243170E-1,2.223640319E0
1.373332333E0,-4.659441501E-1,-1.222487317E0,-2.598656710E0,2.909397857E0
1.383341333E0,9.756839454E-2,6.982148516E-1,-1.773068598E0,1.908086954E0
1.393351333E0,-7.166055143E-2,1.067078850E0,-1.648914814E-1,1.082119082E0
1.403360333E0,-6.863438344E-1,5.792129034E-1,9.518004084E-1,1.308617386E0
1.413369333E0,-8.900660902E-1,7.134965497E-1,1.754165865E0,2.092460956E0
1.423378333E0,-9.611620930E-1,1.491945140E0,1.684572304E0,2.446940277E0
1.433387333E0,-7.662027669E-1,2.424873660E0,1.085782338E0,2.765140545E0
1.443396333E0,-8.555148929E-1,2.965414833E0,7.594760569E-1,3.178426458E0
1.453406333E0,-1.276367801E0,3.028789880E0,5.491400886E-1,3.332302168E0
1.463415333E0,-1.085605022E0,3.208716307E0,3.968341541E-1,3.410553613E0
1.473424333E0,-2.226861649E-1,4.814817224E0,-1.856859344E-1,4.823539498E0
1.483433333E0,3.959472777E-1,5.033620618E0,-5.929714018E-1,5.083869182E0
1.493442333E0,7.354361068E-1,5.043097785E0,-9.552455878E-1,5.185190032E0
1.503451333E0,1.167843186E0,5.355004640E0,-1.527414935E0,5.689721328E0
1.513461333E0,1.869606567E0,5.065450521E0,-1.435547576E0,5.587039873E0
1.523470333E0,2.691673924E0,4.926970913E0,-1.459471459E0,5.800879919E0
1.533479333E0,3.468406650E0,4.770280736E0,-1.285505683E0,6.036385330E0
1.543488333E0,1.683553427E0,-1.574056420E0,-9.993007033E-1,2.512092286E0
1.553497333E0,-5.441013674E0,-8.544635636E0,-5.752128232E-1,1.014624550E1
1.563506333E0,-8.061657962E0,-1.303597203E1,-5.764126718E-2,1.532743352E1
1.573516333E0,-1.084919289E1,-1.933860626E1,1.908127146E0,2.225595712E1
1.583525333E0,-1.425362194E1,-2.135878418E1,5.132870087E0,2.618606033E1
1.593534333E0,-1.269949517E1,-1.620966293E1,5.394841136E0,2.128695987E1
1.603543333E0,-5.429136225E0,-7.580866562E0,-2.942184430E-1,9.329074041E0
1.613552333E0,-2.548929942E-1,-1.026387491E0,-1.571354422E0,1.894095151E0
1.623561333E0,2.084037706E0,2.316674443E0,-8.506125873E-1,3.230129317E0
1.633571333E0,2.801175901E0,3.841304349E0,-1.298787049E0,4.928392571E0
1.643580333E0,1.897836339E0,3.262587875E0,-3.180077230E0,4.935499326E0
1.653589333E0,1.646900448E-1,1.333415430E0,-4.455014071E0,4.653199962E0
1.663598333E0,-6.614855665E-1,-2.206546229E-1,-3.447853979E0,3.517662388E0
1.673607333E0,-3.826952943E-1,-7.242156655E-1,-1.722110260E0,1.906989188E0
1.683616333E0,1.598052809E-1,-3.395647699E-1,-1.904917427E-1,4.208670393E-1
1.693626333E0,7.187798014E-1,1.755263972E-1,9.665973723E-1,1.217277454E0
1.703635333E0,9.736432672E-1,3.643709975E-1,1.205201339E0,1.591621093E0
1.713644333E0,9.624002409E-1,2.391832799E-1,1.091582776E0,1.474779923E0
1.723653417E0,1.174629611E0,2.458274710E-1,8.393409097E-1,1.464472270E0
1.733662417E0,1.377748434E0,4.008254635E-1,6.548799670E-1,1.577250637E0
1.743671417E0,1.212336550E0,1.626093131E-1,2.840987400E-1,1.255752282E0
1.753681417E0,1.438797458E0,1.996683812E-1,8.574832119E-2,1.455114553E0
1.763690417E0,2.852497790E0,1.067444885E0,-6.874220610E-1,3.122295841E0
1.773699417E0,2.423708895E0,4.720445502E-1,-1.305207292E0,2.792983519E0
1.783708417E0,3.019513273E0,6.773350292E-1,-1.954175870E0,3.659924381E0
1.793717417E0,3.331438839E0,8.927768594E-1,-2.161142892E0,4.070144206E0
1.803726417E0,3.292304009E0,1.102534611E0,-1.852557548E0,3.935329430E0
1.813736417E0,3.400209112E0,1.753625582E0,-1.372647762E0,4.064577046E0
1.823745417E0,3.422047293E0,2.329140122E0,-9.055024472E-1,4.237361922E0
1.833754417E0,3.322506632E0,2.910015973E0,-5.084610093E-1,4.445871780E0
1.843763417E0,2.968850657E0,3.806457868E0,4.339014083E-2,4.827533369E0
1.853772417E0,2.390453733E0,4.715261360E0,7.278061482E-1,5.336446433E0
1.863781417E0,1.554203077E0,5.799491263E0,8.876251701E-1,6.069392437E0
1.873791417E0,7.779697037E-1,6.751983982E0,8.578312674E-1,6.850576547E0
1.883800417E0,2.962506428E-1,7.404685276E0,5.665519273E-1,7.432234494E0
1.893809417E0,-2.815416795E-1,7.626749663E0,-3.081023642E-1,7.638160983E0
1.903818417E0,-1.012829406E0,6.703086056E0,-2.030951419E0,7.076860162E0
1.913827417E0,-1.456337351E0,4.131357236E0,-4.957405086E0,6.615504234E0
1.923836417E0,-1.778610004E0,2.885062981E-1,-7.545645858E0,7.757800000E0
1.933845417E0,-2.617563390E0,-3.632956361E0,-6.360654981E0,7.778685095E0
1.943855417E0,-3.635217187E0,-5.822843873E0,-7.342541653E-1,6.903581965E0
1.953864417E0,-2.196570879E0,-5.669527540E0,6.298937620E0,8.754717659E0
1.963873417E0,-1.674198467E0,-4.399198889E0,9.498135830E0,1.060049412E1
1.973882417E0,-3.720384514E0,-4.340793391E0,5.484183083E0,7.922121703E0
1.983891417E0,-4.260186599E0,-4.984404019E0,1.960816699E0,6.843849459E0
1.993900417E0,-3.364351646E0,-6.912980048E0,-4.542295459E-1,7.701589422E0
2.003910417E0,-3.401248162E0,-1.000686640E1,6.970895550E-1,1.059206297E1
2.013919417E0,-4.606765105E0,-1.592059763E1,-3.206714805E0,1.688107620E1
2.023928417E0,-7.762972246E0,-2.227829626E1,-3.943831183E0,2.391944872E1
2.033937417E0,-1.060990846E1,-2.569538804E1,1.042003358E0,2.781921809E1
2.043946417E0,-1.022006640E1,-2.879932400E1,4.235709862E-1,3.056190819E1
2.053955417E0,-6.640085231E0,-2.880568577E1,-4.770381893E0,2.994352698E1
2.063965417E0,-1.459616908E0,-2.142787956E1,-9.361939559E0,2.342926410E1
2.073974417E0,-3.013201788E-1,-1.205050335E1,-8.789400083E0,1.491841073E1
2.083983417E0,-1.604678289E0,-5.304349042E0,-6.450904416E0,8.504427021E0
2.093992417E0,-1.426994561E0,-1.178308679E0,-5.052736920E0,5.380973444E0
2.104001417E0,-7.252035525E-1,1.913581429E0,-3.765390533E0,4.285543133E0
2.114010417E0,8.049239060E-1,4.488304608E0,-3.547249628E0,5.777175839E0
2.124020417E0,2.434509872E0,6.188407118E0,-3.549311357E0,7.537959411E0
2.134029417E0,3.860050815E0,7.605190979E0,-2.566816574E0,8.906596962E0
2.144038417E0,5.558974818E0,8.283417124E0,-2.069064741E0,1.018814160E1
2.154047417E0,6.755204043E0,8.078814277E0,-1.543839179E0,1.064347036E1
2.164056417E0,7.116007655E0,7.840903936E0,-1.410342934E-1,1.058948677E1
2.174065417E0,6.946765260E0,7.845922601E0,1.098149199E0,1.053669686E1
2.184075417E0,6.112058269E0,8.122201202E0,1.139352774E0,1.022866235E1
2.194084417E0,5.340839760E0,8.575475605E0,4.642513446E-1,1.011330216E1
2.204093417E0,4.780883200E0,9.110443797E0,-9.970438242E-2,1.028916767E1
2.214102417E0,4.164995975E0,9.593209217E0,-3.891947669E-1,1.046557820E1
2.224111417E0,3.638299254E0,9.988372822E0,-5.508813894E-1,1.064463637E1
2.234120417E0,3.189542410E0,1.038254298E1,-4.199692476E-1,1.086953328E1
2.244130417E0,2.824760938E0,1.050385517E1,3.024238408E-1,1.088125489E1
2.254139417E0,2.605309672E0,1.031851363E1,9.425875354E-1,1.068399894E1
2.264148417E0,2.438447971E0,1.014628507E1,1.399267942E0,1.052858395E1
2.274157417E0,2.211194766E0,1.008549741E1,1.725315703E0,1.046820685E1
2.284166417E0,1.978939705E0,1.004968673E1,1.869830807E0,1.041194856E1
2.294175417E0,1.795349121E0,1.004525220E1,1.879967541E0,1.037615768E1
2.304185417E0,1.738393440E0,1.002611075E1,1.863063240E0,1.034484960E1
2.314194417E0,1.756175992E0,9.990014720E0,1.859325700E0,1.031220831E1
2.324203417E0,1.759370179E0,9.944024030E0,1.825535810E0,1.026214297E1
2.334212417E0,1.769212067E0,9.923973927E0,1.784873103E0,1.023724288E1
2.344221417E0,1.675005675E0,9.863724217E0,1.776395810E0,1.016141139E1
2.354230417E0,1.604260067E0,9.634031553E0,1.807630466E0,9.932559702E0
2.364239417E0,1.655663816E0,9.333063669E0,1.878789911E0,9.663185378E0
2.374249417E0,1.600577490E0,9.229003111E0,1.964126515E0,9.570482731E0
2.384258417E0,1.482095359E0,9.155788954E0,2.069636014E0,9.503076937E0
2.394267417E0,1.401918192E0,9.059485897E0,2.088627770E0,9.402235123E0
2.404276417E0,1.374633330E0,8.913280948E0,1.878506760E0,9.212219151E0
2.414285417E0,1.394876098E0,8.626537585E0,1.535285872E0,8.872425415E0
2.424294417E0,1.566416156E0,8.257042673E0,1.132762523E0,8.480304488E0
2.434304417E0,4.739098704E0,5.165368912E0,-2.547910421E1,2.642583667E1
2.444313417E0,7.222324069E0,-5.635330099E-1,-3.488613750E1,3.563035397E1
2.454322417E0,1.354737740E0,2.693091289E0,1.828420826E1,1.853106383E1
2.464331417E0,1.481517801E-1,2.053217617E0,2.327321872E1,2.336408271E1
2.474340417E0,-1.501096910E0,-4.963376262E0,1.092211469E1,1.209053287E1
2.484349417E0,-5.756917686E0,-1.240220635E1,1.036697887E1,1.715899398E1
2.494359417E0,-1.269362690E1,-2.701554666E1,1.128317207E1,3.191046689E1
2.504368417E0,-1.899829830E1,-4.552118664E1,-1.726755288E0,4.935681772E1
2.514377417E0,-1.638077935E1,-5.940452547E1,-1.263992958E1,6.290465323E1
2.524386417E0,-2.585356049E0,-5.773172595E1,-1.102649918E1,5.883213349E1
2.534395417E0,2.367086797E0,-4.468858991E1,-1.852305533E0,4.478955463E1
2.544404417E0,2.995148510E-2,-3.186237388E1,2.509254245E0,3.196104071E1
2.554414417E0,1.636393879E0,-2.212280477E1,-2.751237756E0,2.235320077E1
2.564423417E0,1.300354980E0,-1.433700791E1,-9.392609375E0,1.718900317E1
2.574432417E0,-1.610668176E0,-9.384299896E0,-1.197101981E1,1.529590310E1
2.584441417E0,-3.685995577E0,-6.191831247E0,-8.828399257E0,1.139587518E1
2.594450417E0,-4.302452028E0,-2.915208301E0,-4.949302599E0,7.176707400E0
2.604459417E0,-3.935234314E0,-5.688697636E-2,-2.937476837E0,4.911015720E0
2.614469417E0,-2.745274473E0,1.924882928E0,-2.534656304E0,4.203116557E0
2.624478417E0,-8.762657842E-1,3.247614325E0,-2.101029130E0,3.966001000E0
2.634487417E0,7.922486043E-1,4.210739620E0,-9.925496542E-1,4.398083767E0
2.644496417E0,2.071863803E0,5.363098356E0,5.932047423E-1,5.779907911E0
2.654505417E0,2.590411551E0,6.795207185E0,2.398916700E0,7.657667662E0
2.664514417E0,2.914277424E0,7.953613696E0,3.074573579E0,9.011436423E0
2.674524417E0,3.121310374E0,8.967013351E0,2.245736023E0,9.756702167E0
2.684533417E0,3.091286091E0,9.803979707E0,1.335309927E0,1.036615263E1
2.694542417E0,2.943935671E0,1.025490061E1,8.718426579E-1,1.070466502E1
2.704551417E0,2.812561600E0,1.031848089E1,6.507021314E-1,1.071470783E1
2.714560417E0,2.682058178E0,1.025814932E1,7.294518471E-1,1.062803667E1
2.724569208E0,2.612193891E0,1.031072982E1,8.368172514E-1,1.066934719E1
2.734578208E0,2.618760899E0,1.051379193E1,8.727459797E-1,1.087011568E1
2.744588208E0,2.770006441E0,1.069211329E1,1.477883756E0,1.114353457E1
2.754597208E0,3.018502289E0,1.079864722E1,2.373543878E0,1.146105791E1
2.764606208E0,3.143570431E0,1.087842663E1,3.117113242E0,1.174472631E1
2.774615208E0,3.228687180E0,1.095270030E1,3.574691781E0,1.196513628E1
2.784624208E0,3.180825089E0,1.094388972E1,3.758822941E0,1.200063000E1
2.794633208E0,2.712695249E0,1.087462945E1,3.597312319E0,1.177102107E1
2.804643208E0,2.077680759E0,1.081910546E1,3.189340389E0,1.146916267E1
2.814652208E0,1.639411188E0,1.075531351E1,2.726042104E0,1.121587015E1
2.824661208E0,1.428727384E0,1.068710925E1,2.365047873E0,1.103852424E1
2.834670208E0,1.336045800E0,1.059293399E1,2.131572061E0,1.088755566E1
2.844679208E0,1.170734196E0,1.052253351E1,1.986639465E0,1.077223591E1
2.854688208E0,1.070082711E0,1.041738070E1,1.975401117E0,1.065688074E1
2.864698208E0,1.136123357E0,1.026203889E1,1.965017631E0,1.051006721E1
2.874707208E0,1.105472837E0,1.010128840E1,1.957497088E0,1.034842464E1
2.884716208E0,1.062489224E0,9.967845587E0,2.017358543E0,1.022529044E1
2.894725208E0,1.070055813E0,9.861397026E0,2.043886045E0,1.012766710E1
2.904734208E0,9.826228362E-1,9.764105789E0,2.014800825E0,1.001812018E1
2.914743208E0,8.625156181E-1,9.727791072E0,1.663395297E0,9.906600640E0
2.924753208E0,2.840023340E-1,9.543760484E0,-5.988077416E0,1.127036347E1
2.934762208E0,3.974866303E-1,8.002723875E0,-7.808219170E0,1.118793420E1
2.944771208E0,1.074092804E0,6.950141442E0,-3.983767081E0,8.082607350E0
2.954780208E0,2.538433020E0,5.597604448E0,-3.265236956E0,6.959783771E0
2.964789208E0,2.845043760E0,4.684784503E0,2.720804753E0,6.119171377E0
2.974798208E0,7.359728812E-1,5.142786965E0,1.119664614E1,1.234320861E1
2.984808208E0,-1.252115597E0,-1.591290504E-1,-4.387039019E0,4.565000206E0
2.994817208E0,-3.817797081E0,-9.016967284E0,-2.001540977E1,2.228223288E1
3.004826208E0,-1.666089402E0,-1.067998149E1,-5.215019374E0,1.200142848E1
3.014835208E0,2.546451599E0,-1.093664619E1,7.451676425E0,1.347672539E1
3.024844208E0,1.510586941E0,-1.396505951E1,1.053227614E1,1.755658283E1
3.034853208E0,-2.687538481E0,-3.422959575E1,6.054651475E0,3.486469407E1
3.044863208E0,-8.204318914E0,-6.297028855E1,1.485090888E0,6.351986763E1
3.054872208E0,-9.368625850E0,-6.936280618E1,-1.923953951E0,7.001908047E1
3.064881208E0,-4.096808085E0,-6.484742721E1,-7.005201749E0,6.535323636E1
3.074890208E0,2.770159346E0,-4.299685009E1,-9.971708257E0,4.422485575E1
3.084899208E0,3.970308252E0,-1.892441990E1,-7.540452361E0,2.075464859E1
3.094908208E0,1.762907599E0,-6.177076383E0,-3.797887019E0,7.462443410E0
3.104917208E0,-1.116316645E0,8.859701157E-3,-7.037521648E-1,1.319662250E0
3.114927208E0,-2.817662418E0,3.167301064E0,4.132309163E-1,4.259316532E0
3.124936208E0,-3.220398752E0,5.827599998E0,-3.088974394E-2,6.658291375E0
3.134945208E0,-2.684837360E0,8.224932688E0,-1.466813807E0,8.775500676E0
3.144954208E0,-2.050211271E0,9.895048921E0,-1.840587713E0,1.027147129E1
3.154963208E0,-1.390007414E0,1.068555155E1,-1.349758397E0,1.085978730E1
3.164972208E0,-4.878538499E-1,1.106924935E1,-1.150204622E0,1.113953559E1
3.174982208E0,1.434953864E-1,1.137119839E1,-9.292535448E-1,1.141000683E1
3.184991208E0,6.182109082E-1,1.132345822E1,-3.751842535E-1,1.134652607E1
3.195000208E0,1.000362704E0,1.101734244E1,2.096800021E-1,1.106465208E1
3.205009208E0,1.112964436E0,1.076800080E1,3.425006934E-1,1.083078195E1
3.215018208E0,1.184054372E0,1.062870842E1,4.167696512E-1,1.070257560E1
3.225027208E0,1.271846003E0,1.073638256E1,4.092922683E-1,1.081919696E1
3.235037208E0,1.435933638E0,1.092168667E1,3.989368494E-1,1.102289870E1
3.245046208E0,1.761351508E0,1.102861237E1,4.766849371E-1,1.117854545E1
3.255055208E0,2.181070495E0,1.108598408E1,7.845524991E-1,1.132570678E1
3.265064208E0,2.730931545E0,1.098494653E1,1.129735858E0,1.137555891E1
3.275073208E0,3.407495912E0,1.090915960E1,1.848187923E0,1.157741725E1
3.285082208E0,3.755328937E0,1.093586500E1,2.458989240E0,1.182126334E1
3.295092208E0,3.514196195E0,1.091694107E1,2.746632489E0,1.179292870E1
3.305101208E0,2.837676560E0,1.081661689E1,2.549105066E0,1.146950504E1
3.315110208E0,2.046973667E0,1.063908372E1,2.135683676E0,1.104270567E1
3.325119208E0,1.434249786E0,1.045165240E1,1.924797997E0,1.072375669E1
3.335128208E0,1.015487112E0,1.031046436E1,1.862017758E0,1.052634787E1
3.345137208E0,7.109883866E-1,1.019440531E1,1.951522257E0,1.040383791E1
3.355147208E0,4.503654500E-1,1.009429163E1,2.061633368E0,1.031251107E1
3.365156208E0,1.875220150E-1,1.002584412E1,2.228824121E0,1.027231093E1
3.375165208E0,-7.072707999E-2,9.998898979E0,2.413929719E0,1.028640072E1
3.385174208E0,-2.691743068E-1,9.951142430E0,2.671866774E0,1.030711223E1
3.395183208E0,-4.259477698E-1,9.886689742E0,2.850837766E0,1.029831741E1
3.405192208E0,-5.732983717E-1,9.842199447E0,2.905860065E0,1.027820917E1
3.415201208E0,-5.980785061E-1,9.795643331E0,2.841607351E0,1.021699851E1
3.425211208E0,-7.668374822E-1,9.751960537E0,1.843431798E0,9.954246071E0
3.435220208E0,-4.948626880E-1,9.251269893E0,-2.879495262E0,9.701668757E0
3.445229208E0,3.017408677E-1,8.472402642E0,-1.605611504E0,8.628478567E0
3.455238208E0,7.816838551E-1,7.893890235E0,1.141307498E0,8.014182148E0
3.465247208E0,5.288168480E-1,7.605149463E0,6.547049013E0,1.004896992E1
3.475256208E0,-5.734023790E-1,7.419461190E0,6.936779970E0,1.017330384E1
3.485266208E0,-4.979750878E-1,4.323465752E0,3.185884684E-2,4.352166160E0
3.495275208E0,-1.537374790E-1,-4.410338420E-1,-4.330245891E0,4.355361700E0
3.505284208E0,-5.501743148E-1,-2.497704239E0,-3.589438751E0,4.407412936E0
3.515293208E0,-8.998612728E-1,-1.149438636E0,6.526839867E0,6.688093759E0
3.525302208E0,-4.013319786E-1,-8.092996699E0,1.081972293E1,1.351754664E1
3.535311208E0,-4.321617447E0,-5.163496516E1,1.065089159E1,5.289884211E1
3.545321208E0,-7.957575769E0,-6.993922937E1,9.296759477E0,7.100175036E1
3.555330208E0,1.563881680E-2,-6.843747261E1,5.361036043E0,6.864713110E1
3.565339208E0,5.023335366E0,-6.733131038E1,-1.145935131E0,6.752816022E1
3.575348208E0,-4.807807289E-1,-4.504959233E1,-8.720561982E0,4.588839854E1
3.585357208E0,-2.352485277E0,-1.861381581E1,-9.745613970E0,2.114202728E1
3.595366208E0,-1.359378675E0,-7.644438075E0,-5.458757050E0,9.491226074E0
3.605376208E0,-1.200604551E0,-2.361314426E0,-2.389343054E0,3.567382421E0
3.615385208E0,-1.042170515E0,4.849107635E-1,-1.370939351E0,1.789059120E0
3.625394208E0,-3.445054844E-1,3.035497806E0,-4.350468779E-1,3.085805688E0
3.635403208E0,5.116058611E-1,5.687966149E0,-2.611413288E-1,5.716895510E0
3.645412208E0,1.629811522E0,8.489399328E0,-7.473302937E-1,8.676675004E0
3.655421208E0,2.600300947E0,1.066022492E1,-1.607351636E0,1.108988456E1
3.665431208E0,3.180131316E0,1.181961084E1,-1.883905056E0,1.238408389E1
3.675440208E0,3.714525020E0,1.231754335E1,-1.041826479E0,1.290755487E1
3.685449208E0,4.469418687E0,1.233668947E1,-2.475769579E-1,1.312367726E1
3.695458208E0,4.750650464E0,1.185595713E1,-1.159759959E-1,1.277285597E1
3.705467208E0,4.682328088E0,1.139522460E1,1.416885420E-1,1.232052822E1
3.715476208E0,4.597142926E0,1.114534735E1,3.075401179E-1,1.206014393E1
3.725485833E0,5.075107198E0,1.112823840E1,-9.490311670E-1,1.226764293E1
3.735494833E0,6.758206589E0,1.115211492E1,-3.283005767E0,1.344697551E1
3.745503833E0,6.523007017E0,1.132245250E1,-1.695286596E0,1.317655295E1
3.755512833E0,5.534158650E0,1.122584597E1,4.575423590E-1,1.252421154E1
3.765521833E0,5.475881791E0,1.108117065E1,1.083012001E0,1.240768066E1
3.775530833E0,5.304304603E0,1.121915675E1,1.357456841E0,1.248390222E1
3.785540833E0,4.739883401E0,1.120233899E1,1.285989687E0,1.223162553E1
3.795549833E0,3.845723090E0,1.056325937E1,7.555351067E-1,1.126689256E1
3.805558833E0,3.095368324E0,9.877888513E0,6.861005902E-2,1.035174835E1
3.815567833E0,2.557738772E0,9.569567170E0,-4.624106777E-1,9.916272842E0
3.825576833E0,2.184362478E0,9.653664165E0,-4.332459354E-1,9.907187960E0
3.835585833E0,2.380531300E0,9.842426319E0,2.884020714E-1,1.013032383E1
3.845594833E0,2.522311077E0,9.655376229E0,1.136405193E0,1.004389168E1
3.855604833E0,2.314618562E0,9.488551074E0,1.789327512E0,9.929338020E0
3.865613833E0,2.004764079E0,9.420124032E0,2.194023832E0,9.877831563E0
3.875622833E0,1.667946039E0,9.367473364E0,2.443615741E0,9.823586875E0
3.885631833E0,1.305403904E0,9.355940900E0,2.523267682E0,9.777759932E0
3.895640833E0,9.875689229E-1,9.369715186E0,2.496952872E0,9.746877895E0
3.905649833E0,7.977846750E-1,9.513753743E0,2.364053700E0,9.835482731E0
3.915659833E0,8.661038350E-1,9.776651575E0,2.036932683E0,1.002407834E1
3.925668833E0,1.251542862E0,9.874169683E0,1.458195158E0,1.005941945E1
3.935677833E0,1.841933742E0,9.604908326E0,6.260100706E-1,9.799942473E0
3.945686833E0,2.591646776E0,8.717854137E0,-1.175849194E0,9.170618032E0
3.955695833E0,3.661096379E0,7.500078506E0,-4.578866869E0,9.519497156E0
3.965704833E0,4.539267771E0,6.442539974E0,-5.277827826E0,9.485079850E0
3.975714833E0,3.908753736E0,5.295803336E0,1.570035875E-1,6.583960728E0
3.985723833E0,2.884452824E0,2.073978156E0,4.840011706E0,6.003929280E0
3.995732833E0,3.599814635E0,-6.111499860E0,1.170146112E0,7.188764697E0
4.005741833E0,4.034645458E0,-1.397242232E1,-4.957686921E0,1.536507758E1
4.015750833E0,3.671949103E0,-2.682968239E1,-1.195276129E0,2.710615709E1
4.025759833E0,1.862025944E0,-4.448157509E1,3.736378988E0,4.467704322E1
4.035769833E0,1.331805837E0,-5.843370523E1,6.833816350E0,5.884702762E1
4.045778833E0,5.881108453E0,-5.949887146E1,7.557436184E0,6.026456657E1
4.055787833E0,8.889559379E0,-4.353245037E1,7.569478671E-1,4.443727569E1
4.065796833E0,4.985706779E0,-2.657888595E1,-1.057704477E1,2.903736088E1
4.075805833E0,2.188751398E0,-1.779390286E1,-1.639546756E1,2.429454606E1
4.085814833E0,3.162770641E-1,-1.358899700E1,-1.146886678E1,1.778470623E1
4.095824833E0,-1.834075961E0,-1.429990031E1,-1.983350991E0,1.455282326E1
4.105833833E0,-2.889811504E0,-1.445799148E1,4.384879643E0,1.538218768E1
4.115842833E0,-4.103755747E0,-1.116241420E1,6.824042144E0,1.371159558E1
4.125851833E0,-5.478687285E0,-7.266886284E0,5.682678512E0,1.072923509E1
4.135860833E0,-5.054104584E0,-3.959357294E0,3.323120005E0,7.229357502E0
4.145869833E0,-3.954548837E0,-9.585106730E-2,1.425230749E0,4.204631567E0
4.155879833E0,-3.212702354E0,4.034956530E0,-2.797236340E-1,5.165324378E0
4.165888833E0,-2.375807335E0,7.521556499E0,-1.555144186E0,8.039698135E0
4.175897833E0,-1.395408779E0,1.008281471E1,-2.244701650E0,1.042348328E1
4.185906833E0,2.526041016E-2,1.156418107E1,-1.870236458E0,1.171446568E1
4.195915833E0,1.531199107E0,1.220737011E1,-9.117913469E-1,1.233676697E1
4.205924833E0,2.707243013E0,1.229777157E1,-4.546175086E-1,1.260043759E1
4.215933833E0,3.497093090E0,1.208444994E1,-2.158662649E-1,1.258213769E1
4.225943833E0,3.978871207E0,1.210325459E1,9.817708969E-2,1.274087228E1
4.235952833E0,4.376297100E0,1.223145128E1,2.188847438E-1,1.299262434E1
4.245961833E0,5.045636646E0,1.232497165E1,-4.675071108E-1,1.332598733E1
4.255970833E0,6.067583177E0,1.208826233E1,-1.311117657E0,1.358899118E1
4.265979833E0,6.921393607E0,1.175520025E1,-4.723661470E-1,1.364967223E1
4.275988833E0,7.379296666E0,1.143343382E1,1.699379793E0,1.371369096E1
4.285998833E0,7.418963592E0,1.133259858E1,3.311470013E0,1.394398240E1
4.296007833E0,6.794285079E0,1.129132426E1,3.184694191E0,1.355723387E1
4.306016833E0,4.860734823E0,1.067591884E1,2.322463771E0,1.195808614E1
4.316025833E0,3.742146097E0,1.011633797E1,1.652762282E0,1.091217551E1
4.326034833E0,3.232541080E0,9.767067404E0,1.083473711E0,1.034499119E1
4.336043833E0,2.857246022E0,9.485643253E0,4.794342613E-1,9.918222621E0
4.346053833E0,2.656565780E0,9.336954991E0,-3.473392278E-3,9.707527096E0
4.356062833E0,2.634915294E0,9.440624955E0,-3.387457211E-1,9.807289474E0
4.366071833E0,2.418060485E0,9.469023712E0,-4.218368483E-1,9.781992276E0
4.376080833E0,1.982399503E0,9.373481378E0,-2.264005356E-1,9.583491959E0
4.386089833E0,1.498443005E0,9.308521736E0,2.627038510E-1,9.432015779E0
4.396098833E0,1.009542832E0,9.270068691E0,8.419476715E-1,9.362810804E0
4.406108833E0,5.951505860E-1,9.175392914E0,1.312078940E0,9.287819469E0
4.416117833E0,4.032689419E-1,9.093689185E0,1.688390682E0,9.257887013E0
4.426126833E0,3.534918143E-1,9.102231383E0,1.953161817E0,9.316137273E0
4.436135833E0,2.967971382E-1,9.192653895E0,2.083072915E0,9.430385302E0
4.446144833E0,1.469702771E-1,9.237124309E0,2.088124909E0,9.471342640E0
4.456153833E0,-4.839217801E-2,9.272268414E0,1.895777242E0,9.464210199E0
4.466163833E0,-5.023102500E-1,9.221498795E0,1.298900631E0,9.326065540E0
4.476172833E0,-1.005125115E0,8.947675440E0,5.265791917E-1,9.019337998E0
4.486181833E0,-1.423054415E0,8.274259799E0,-1.433610832E0,8.517258896E0
4.496190833E0,-1.648615729E0,6.103946427E0,-7.192628399E0,9.576533772E0
4.506199833E0,1.253248714E-1,2.970360408E0,-3.025807800E0,4.241964182E0
4.516208833E0,1.276915685E0,-5.559538490E-1,4.141974610E0,4.369845766E0
4.526218833E0,1.126500448E0,-7.821735009E0,3.049680812E0,8.470483745E0
4.536227833E0,1.050287693E0,-2.099661466E1,7.517810480E-1,2.103630448E1
4.546236833E0,1.334154664E0,-4.239050786E1,-3.490954975E0,4.255492794E1
4.556245833E0,2.963907714E0,-6.162542895E1,-3.805835724E-1,6.169783696E1
4.566254833E0,8.379982721E0,-6.523610332E1,2.025069705E0,6.580329927E1
4.576263833E0,1.278013061E1,-4.994234592E1,-3.916946855E0,5.170021399E1
4.586272833E0,9.157728476E0,-3.055235901E1,-1.194274150E1,3.405788758E1
4.596282833E0,5.629021538E0,-1.868250656E1,-1.148040918E1,2.263894277E1
4.606291833E0,5.630005844E-1,-1.408295107E1,-2.427048386E0,1.430164481E1
4.616300833E0,-3.628212515E0,-1.266781028E1,4.728639790E0,1.399990634E1
4.626309833E0,-4.825290172E0,-1.114129172E1,3.635737882E0,1.267400475E1
4.636318833E0,-4.657435906E0,-8.458052990E0,9.822481759E-1,9.705420191E0
4.646327833E0,-4.438231977E0,-5.325383815E0,-1.414511633E-1,6.933803018E0
4.656337833E0,-3.464748339E0,-2.422019634E0,1.098446969E-1,4.228797231E0
4.666346833E0,-1.708734608E0,4.203072166E-1,6.049084195E-1,1.860738109E0
4.676355833E0,1.333141780E-1,3.143642060E0,7.150361216E-1,3.226690987E0
4.686364833E0,1.325100689E0,5.664223530E0,4.463916457E-1,5.834259639E0
4.696373833E0,2.279338217E0,7.965347888E0,1.606838981E-1,8.286613844E0
4.706382833E0,3.320692241E0,9.896957452E0,7.499638796E-3,1.043919633E1
4.716392833E0,4.064407786E0,1.136126865E1,-9.403492212E-3,1.206639650E1
4.726402292E0,4.257726091E0,1.219212291E1,-6.132450141E-2,1.291432744E1
4.736411292E0,4.101637593E0,1.266131987E1,-1.114233720E-1,1.330957801E1
4.746420292E0,3.828241377E0,1.285176953E1,-2.438764013E-2,1.340984738E1
4.756429292E0,3.502706709E0,1.266835290E1,2.391546285E-1,1.314584780E1
4.766438292E0,3.351224062E0,1.231479750E1,5.635675085E-1,1.277507528E1
4.776448292E0,3.303663687E0,1.192151026E1,5.411493567E-1,1.238262667E1
4.786457292E0,3.491530926E0,1.168639489E1,2.738848237E-1,1.219990273E1
4.796466292E0,4.009075000E0,1.162699888E1,-4.294909266E-1,1.230626863E1
4.806475292E0,5.415343228E0,1.162218545E1,-1.452863520E0,1.290395092E1
4.816484292E0,6.209662331E0,1.159955672E1,-2.673061652E0,1.342590336E1
4.826493292E0,5.593312592E0,1.086382263E1,-3.424016050E0,1.268982560E1
4.836502292E0,3.933781281E0,9.821282787E0,-2.649902000E0,1.090661319E1
4.846512292E0,1.784161935E0,9.578090072E0,-9.996459083E-1,9.793994853E0
4.856521292E0,-3.332965547E-1,9.528757113E0,9.952394465E-1,9.586386195E0
4.866530292E0,-9.693617897E-1,9.175719774E0,2.306889127E0,9.510795608E0
4.876539292E0,-9.744391463E-1,8.723902497E0,2.820892128E0,9.220273251E0
4.886548292E0,-9.013607182E-1,8.739623321E0,3.248776166E0,9.367390966E0
4.896557292E0,-7.886281545E-1,8.942066790E0,3.528949013E0,9.645515745E0
4.906567292E0,-7.833486304E-1,9.009681653E0,3.568601321E0,9.722289543E0
4.916576292E0,-8.929175580E-1,8.977271122E0,3.604243609E0,9.714899410E0
4.926585292E0,-1.090013457E0,8.955294362E0,3.680906453E0,9.743433623E0
4.936594292E0,-1.368270390E0,8.904325352E0,3.677807429E0,9.730644445E0
4.946603292E0,-1.281702362E0,8.858730519E0,3.314269660E0,9.544854673E0
4.956612292E0,-1.347090020E0,8.616834131E0,2.232481262E0,9.002691517E0
4.966622292E0,-1.858058316E0,8.017461197E0,7.527730282E-1,8.264304689E0
4.976631292E0,-1.772096791E0,7.623326703E0,-2.880712652E-1,7.831884965E0
4.986640292E0,-4.601057053E-2,7.485752828E0,-3.847324643E-1,7.495774239E0
4.996649292E0,2.056113450E0,6.783557777E0,3.704211116E-2,7.088415250E0
5.006658292E0,3.458498543E0,5.490561810E0,1.094830612E0,6.580739718E0
5.016667292E0,4.149270473E0,3.507000319E0,1.452685765E0,5.623681413E0
5.026677292E0,3.413130581E0,1.431243441E0,3.282545883E0,4.947021895E0
5.036686292E0,1.765963646E0,7.124773800E-1,9.190410903E0,9.385622205E0
5.046695292E0,1.282816987E0,-6.463774137E0,1.003557739E1,1.200578232E1
5.056704292E0,3.455480429E-1,-2.801631166E1,6.304391903E0,2.871895680E1
5.066713292E0,-3.193281704E0,-5.217383520E1,-1.049272616E-1,5.227157102E1
5.076722292E0,-4.210556602E0,-6.378951153E1,-7.194837477E0,6.433192251E1
5.086732292E0,-1.892406907E0,-6.292711739E1,-1.107729395E1,6.392268570E1
5.096741292E0,-1.660565684E0,-4.838516222E1,-1.267881825E1,5.004631689E1
5.106750292E0,-5.382157356E0,-2.781338053E1,-1.325730200E1,3.127791250E1
5.116759292E0,-7.014725109E0,-1.764893635E1,-1.008447181E1,2.150320660E1
5.126768292E0,-6.290865539E0,-1.497653192E1,-8.101005045E0,1.815207372E1
5.136777292E0,-7.511356031E0,-1.341065693E1,-7.917908843E0,1.729044444E1
5.146787292E0,-6.777495968E0,-1.017689875E1,-5.107725306E0,1.325113495E1
5.156796292E0,-5.197587070E0,-6.283044303E0,-3.127953980E0,8.733593371E0
5.166805292E0,-4.112094169E0,-2.323938439E0,-1.664644994E0,5.008098569E0
5.176814292E0,-2.205966916E0,1.103745570E0,-4.539766538E-1,2.508114654E0
5.186823292E0,-1.158861132E-1,3.758697810E0,4.468628947E-1,3.786941413E0
5.196832292E0,1.943435704E0,5.867976192E0,1.312370131E0,6.319208992E0
5.206841292E0,3.723777946E0,7.407864992E0,1.990300992E0,8.526680712E0
5.216851292E0,4.820028262E0,8.756981365E0,2.565635437E0,1.031987792E1
5.226860292E0,5.354661409E0,9.759908073E0,2.520086796E0,1.141398449E1
5.236869292E0,5.412128429E0,1.024671216E1,2.174911623E0,1.179052522E1
5.246878292E0,5.074101477E0,1.062267878E1,1.771592907E0,1.190488772E1
5.256887292E0,4.368847747E0,1.094401017E1,1.273960941E0,1.185247509E1
5.266896292E0,3.508612981E0,1.113416513E1,7.766435552E-1,1.169970827E1
5.276906292E0,3.332758263E0,1.146569174E1,-2.684211854E-2,1.194027157E1
5.286915292E0,3.652068863E0,1.215777871E1,-6.597332291E-1,1.271158676E1
5.296924292E0,3.700367449E0,1.245281518E1,-2.439494184E-1,1.299326119E1
5.306933292E0,3.811108158E0,1.245138612E1,8.320810068E-1,1.304813858E1
5.316942292E0,3.944347199E0,1.224342638E1,1.643800839E0,1.296770780E1
5.326951292E0,4.146916092E0,1.198086535E1,1.941331730E0,1.282602107E1
5.336961292E0,4.060293100E0,1.163600593E1,1.950935197E0,1.247753029E1
5.346970292E0,3.716395251E0,1.139545264E1,1.813157254E0,1.212251929E1
5.356979292E0,3.393366700E0,1.126004165E1,1.596978675E0,1.186818506E1
5.366988292E0,3.122586821E0,1.119489899E1,1.295525618E0,1.169421646E1
5.376997292E0,2.779789125E0,1.110462500E1,9.274175191E-1,1.148477371E1
5.387006292E0,2.109577905E0,1.045957070E1,6.084986830E-1,1.068752585E1
5.397016292E0,1.642448963E0,9.672784560E0,4.055301332E-1,9.819615798E0
5.407025292E0,1.441714634E0,9.513423960E0,2.911937515E-1,9.626451596E0
5.417034292E0,1.262231280E0,9.466890648E0,2.189641929E-1,9.553177046E0
5.427043292E0,1.113357150E0,9.452507667E0,1.225659724E-1,9.518638965E0
5.437052292E0,9.402854135E-1,9.399359985E0,-9.043413363E-2,9.446707528E0
5.447061292E0,7.406442949E-1,9.293524797E0,-3.519461028E-1,9.329631460E0
5.457071292E0,6.565106092E-1,9.153942404E0,-4.087272446E-1,9.186551348E0
5.467080292E0,8.725268552E-1,8.950762185E0,-3.909153101E-1,9.001681042E0
5.477089292E0,1.424903597E0,8.764421362E0,-5.517247041E-1,8.896619146E0
5.487098292E0,2.212265975E0,8.552746893E0,-1.631577820E0,8.983632136E0
5.497107292E0,3.517997470E0,7.960675963E0,-4.810606059E0,9.944375226E0
5.507116292E0,5.274926437E0,7.125842671E0,-6.257803627E0,1.085184726E1
5.517125292E0,6.258227550E0,6.705302151E0,4.797181436E-1,9.184585919E0
5.527135292E0,3.727654358E0,6.149240128E0,1.019921055E1,1.247928111E1
5.537144292E0,3.233694078E-1,5.480067812E0,1.016254033E1,1.155045180E1
5.547153292E0,7.715531154E-1,9.409292650E-1,2.157289284E0,2.476800183E0
5.557162292E0,8.340290798E-1,-4.743010492E0,-6.067541077E0,7.746406119E0
5.567171292E0,-4.388631362E-1,-3.430914010E0,9.029393202E0,9.669214725E0
5.577180292E0,-4.265385359E0,-2.520126557E1,2.946297069E0,2.572893245E1
5.587190292E0,-7.393549254E0,-5.583453835E1,-4.586078825E0,5.650833888E1
5.597199292E0,-4.994554785E0,-6.651899647E1,4.288118749E0,6.684392591E1
5.607208292E0,-5.136137584E-1,-5.645212595E1,7.813877521E0,5.699265747E1
5.617217292E0,-5.928727300E-1,-4.610092170E1,3.385254858E0,4.622884846E1
5.627226292E0,-1.909827809E0,-3.073365778E1,-4.980075910E0,3.119304921E1
5.637235292E0,-3.529742480E0,-1.891601629E1,-5.952239832E0,2.014209307E1
5.647245292E0,-4.838261635E0,-1.346713401E1,-3.727774518E0,1.478745337E1
5.657254292E0,-5.119882836E0,-1.055243968E1,-2.676553609E0,1.203042488E1
5.667263292E0,-4.655031531E0,-8.148832930E0,-2.305519710E0,9.663757955E0
5.677272292E0,-3.602368407E0,-5.312258570E0,-3.133046905E0,7.142347805E0
5.687281292E0,-2.246371615E0,-2.354723445E0,-4.235472758E0,5.341361008E0
5.697290292E0,-7.010704125E-1,3.697340637E-1,-4.571677133E0,4.639874439E0
5.707300292E0,7.995697568E-1,2.877973232E0,-3.796932753E0,4.831018531E0
5.717309292E0,2.169163371E0,4.925000401E0,-2.482557027E0,5.926549424E0
5.727320667E0,3.178517485E0,6.590038328E0,-1.218046356E0,7.417224244E0
5.737329667E0,4.013659217E0,7.969779493E0,-3.906922388E-1,8.931936290E0
5.747338667E0,4.402815392E0,9.011457453E0,-5.225306161E-1,1.004311640E1
5.757347667E0,4.312693427E0,9.669910653E0,-1.260847975E0,1.066284363E1
5.767357667E0,4.047954598E0,1.043779216E1,-1.571346821E0,1.130497998E1
5.777366667E0,4.041984884E0,1.125548316E1,-1.872474918E0,1.210494549E1
5.787375667E0,4.366603293E0,1.198969231E1,-2.417069381E0,1.298700005E1
5.797384667E0,4.954773254E0,1.266518839E1,-3.293996193E0,1.399311208E1
5.807393667E0,5.041601483E0,1.280512863E1,-2.748418229E0,1.403363344E1
5.817402667E0,4.532164281E0,1.244709894E1,-1.555078697E-1,1.324745137E1
5.827412667E0,4.312589931E0,1.198398542E1,1.586719151E0,1.283479709E1
5.837421667E0,4.242469536E0,1.159448953E1,2.067287772E0,1.251816336E1
5.847430667E0,3.773050386E0,1.128908594E1,2.286994561E0,1.212063178E1
5.857439667E0,2.718893298E0,1.079298712E1,2.479289603E0,1.140297455E1
5.867448667E0,1.639037697E0,1.019588934E1,2.586425797E0,1.064575983E1
5.877457667E0,1.198238475E0,9.746139050E0,2.352148916E0,1.009730689E1
5.887467667E0,1.302061197E0,9.337686478E0,1.839252208E0,9.605758732E0
5.897476667E0,1.450904557E0,9.198997539E0,1.522585720E0,9.436363019E0
5.907485667E0,1.407429632E0,9.153241907E0,1.485943412E0,9.379270942E0
5.917494667E0,1.313517209E0,9.123399473E0,1.575649348E0,9.351171919E0
5.927503667E0,1.279815319E0,9.108719453E0,1.684580491E0,9.351176865E0
5.937512667E0,1.191521778E0,9.051047781E0,1.793698890E0,9.303684527E0
5.947521667E0,1.059215222E0,8.983868535E0,1.864312205E0,9.236205430E0
5.957531667E0,9.428826736E-1,8.958544244E0,1.864857458E0,9.199034517E0
5.967540667E0,8.495434240E-1,8.949364116E0,1.833456448E0,9.174661010E0
5.977549667E0,8.150710910E-1,8.960596032E0,1.752328524E0,9.166639373E0
5.987558667E0,8.961455865E-1,8.979030549E0,1.597240630E0,9.163909872E0
5.997567667E0,1.420645947E0,8.884323782E0,9.875725043E-1,9.051228835E0
6.007576667E0,2.198354280E0,8.401375344E0,-1.088554065E0,8.752189392E0
6.017586667E0,2.956180618E0,7.325438547E0,-7.082340556E0,1.060945812E1
6.027595667E0,4.128646467E0,5.736678134E0,-1.674193848E1,1.817271861E1
6.037604667E0,2.249668860E0,6.326141791E0,2.418331211E0,7.136484133E0
6.047613667E0,-1.159746547E0,4.866918254E0,1.219272751E1,1.317932129E1
6.057622667E0,-1.525855337E0,-1.976392804E0,4.421776743E0,5.078038262E0
6.067631667E0,-1.790635095E0,-7.510408198E0,-1.612121794E0,7.887429367E0
6.077641667E0,-2.291114509E0,-1.493689950E1,4.097363863E0,1.565722079E1
6.087650667E0,-4.420966026E0,-3.481989088E1,5.741079333E0,3.556585067E1
6.097659667E0,-5.677745216E0,-5.481764674E1,7.381322726E0,5.560301350E1
6.107668667E0,-4.160191610E0,-5.720599577E1,7.589616920E0,5.785702577E1
6.117677667E0,-1.236479704E0,-4.974651565E1,2.345695928E0,4.981713551E1
6.127686667E0,-2.394984156E0,-3.579551753E1,-4.452175248E0,3.615075225E1
6.137696667E0,-5.583902083E0,-2.277200007E1,-6.926145054E0,2.444821946E1
6.147705667E0,-5.675546079E0,-1.695549867E1,-4.358201137E0,1.840365930E1
6.157714667E0,-5.312991226E0,-1.272663795E1,-1.867160969E0,1.391694935E1
6.167723667E0,-4.848239031E0,-9.185499242E0,-1.901133292E0,1.055903053E1
6.177732667E0,-3.976013673E0,-6.276285506E0,-2.695868132E0,7.903679489E0
6.187741667E0,-3.184953808E0,-3.490393642E0,-3.706093919E0,6.005157006E0
6.197751667E0,-2.275285365E0,-8.776080126E-1,-4.218911104E0,4.873020647E0
6.207760667E0,-8.728868245E-1,1.361045862E0,-3.791217685E0,4.121614827E0
6.217769667E0,7.766488177E-1,3.105379050E0,-2.534075675E0,4.082658687E0
6.227778667E0,1.971020090E0,4.895339815E0,-1.227482593E0,5.418116427E0
6.237787667E0,3.128147815E0,6.620594707E0,-4.113715017E-1,7.333949110E0
6.247796667E0,4.071267155E0,8.255312482E0,-1.176296798E-1,9.205391744E0
6.257806667E0,4.816708798E0,9.546724437E0,-3.025606656E-1,1.069729751E1
6.267815667E0,5.055397988E0,1.030418094E1,-7.379069940E-1,1.150120430E1
6.277824667E0,5.122348022E0,1.077561036E1,-1.268973266E0,1.199843828E1
6.287833667E0,5.173222307E0,1.126556026E1,-1.224113500E0,1.245686681E1
6.297842667E0,5.081349100E0,1.166232307E1,-6.315508191E-1,1.273690483E1
6.307851667E0,4.680592049E0,1.178198166E1,1.493531636E-1,1.267853857E1
6.317861667E0,4.748723221E0,1.189084162E1,1.190410223E0,1.285922094E1
6.327870667E0,4.876259181E0,1.213758710E1,1.866439422E0,1.321296789E1
6.337879667E0,4.647635095E0,1.210275641E1,1.884949368E0,1.310077321E1
6.347888667E0,4.522223137E0,1.198653130E1,1.653416001E0,1.291747728E1
6.357897667E0,4.331361832E0,1.189683384E1,1.478072037E0,1.274676617E1
6.367906667E0,3.892077769E0,1.175734968E1,1.594920455E0,1.248708582E1
6.377916667E0,3.120116957E0,1.151545037E1,1.660281801E0,1.204563252E1
6.387925667E0,2.161624410E0,1.046372339E1,1.533566791E0,1.079416297E1
6.397934667E0,1.676845063E0,9.630170637E0,1.362012846E0,9.869502259E0
6.407943667E0,1.425192303E0,9.362252385E0,1.373881670E0,9.569247288E0
6.417952667E0,1.236493591E0,9.322504767E0,1.483904049E0,9.520503283E0
6.427961667E0,1.077254905E0,9.391192594E0,1.577869974E0,9.583561453E0
6.437970667E0,9.201168318E-1,9.429657333E0,1.660547557E0,9.618860150E0
6.447980667E0,8.213981438E-1,9.484031176E0,1.731461127E0,9.675717022E0
6.457989667E0,6.409888098E-1,9.498137584E0,1.733815216E0,9.676342254E0
6.467998667E0,3.934527093E-1,9.452822247E0,1.618731487E0,9.598486605E0
6.478007667E0,4.491100162E-2,9.312500766E0,1.207296981E0,9.390540640E0
6.488016667E0,-2.685730668E-1,9.078674120E0,6.467324567E-1,9.105642105E0
6.498025667E0,-1.357868924E-1,8.696814101E0,-1.168039799E-1,8.698658331E0
6.508035667E0,6.215787582E-1,8.233502367E0,-1.065761326E0,8.325429033E0
6.518044667E0,1.164166749E0,8.013050058E0,-1.224698149E0,8.189269870E0
6.528053667E0,1.710590221E0,7.149304624E0,-3.470544684E0,8.129166988E0
6.538062667E0,2.022497807E0,5.727256515E0,-1.976856781E0,6.387482078E0
6.548071667E0,-1.411279402E-2,4.566971294E0,7.364113201E0,8.665309527E0
6.558080667E0,-1.745064674E0,-1.158908202E0,6.662696414E0,6.984256757E0
6.568090667E0,-2.244487350E0,-1.532392436E1,5.679956049E0,1.649612930E1
6.578099667E0,-5.214979613E0,-3.682627873E1,2.429565905E0,3.727296082E1
6.588108667E0,-9.435889880E0,-5.944369246E1,1.366620598E0,6.020345706E1
6.598117667E0,-7.505738611E0,-6.713031117E1,8.340352924E-1,6.755375937E1
6.608126667E0,-2.899969580E0,-5.897883413E1,-2.217550689E0,5.909171034E1
6.618135667E0,-1.303199797E0,-4.155777080E1,-6.193101847E0,4.203690228E1
6.628145667E0,-3.327208671E0,-2.194928981E1,-7.459260263E0,2.341969693E1
6.638154667E0,-3.738741848E0,-1.306745227E1,-8.356806697E0,1.595533508E1
6.648163667E0,-3.010836297E0,-9.230854924E0,-8.272966980E0,1.275601037E1
6.658172667E0,-2.489533925E0,-6.707158057E0,-5.570117272E0,9.066970541E0
6.668181667E0,-2.943308558E0,-4.204177875E0,-2.829372929E0,5.860335148E0
6.678190667E0,-3.181215098E0,-1.962567063E0,-1.001223414E0,3.869657259E0
6.688200667E0,-2.377311092E0,4.349071294E-1,-2.252616441E-1,2.427240213E0
6.698209667E0,-1.168992895E0,2.690143708E0,2.670189500E-2,2.933279828E0
6.708218667E0,3.110860522E-1,4.450519901E0,3.453728457E-1,4.474727290E0
6.718227667E0,1.762770628E0,6.089912524E0,1.011808044E0,6.420136319E0
6.728234333E0,2.680294073E0,7.774674278E0,1.523868599E0,8.363714005E0
6.738243333E0,3.313371527E0,9.241689230E0,1.658473842E0,9.956795980E0
6.748253333E0,3.698381442E0,1.040353449E1,1.677528749E0,1.116806419E1
6.758262333E0,3.934801328E0,1.137516164E1,1.610451829E0,1.214374402E1
6.768271333E0,3.527592459E0,1.183051239E1,1.039889955E0,1.238895891E1
6.778280333E0,3.259671576E0,1.202389150E1,1.358332316E-1,1.245864665E1
6.788289333E0,3.702007593E0,1.228193848E1,-3.819705319E-1,1.283342412E1
6.798298333E0,4.393843424E0,1.257869403E1,-1.970803305E-1,1.332547351E1
6.808308333E0,5.560354761E0,1.300473620E1,6.639794771E-1,1.415915172E1
6.818317333E0,6.565295835E0,1.342394882E1,1.582703283E0,1.502699108E1
6.828326333E0,6.883123580E0,1.360248302E1,2.023528379E0,1.537854355E1
6.838335333E0,6.789273430E0,1.359370401E1,2.166139630E0,1.534845866E1
6.848344333E0,6.172474040E0,1.345054195E1,2.037997022E0,1.493887367E1
6.858353333E0,4.978463833E0,1.269140730E1,1.782652330E0,1.374899163E1
6.868363333E0,4.009075292E0,1.056296701E1,1.424572352E0,1.138764081E1
6.878372333E0,3.407128122E0,9.410406545E0,1.188955362E0,1.007858563E1
6.888381333E0,2.542869010E0,8.867983153E0,1.005444007E0,9.279990606E0
6.898390333E0,1.937165589E0,8.589221824E0,9.070061318E-1,8.851553660E0
6.908399333E0,1.570933715E0,8.588410231E0,7.601427126E-1,8.763928341E0
6.918408333E0,1.264959006E0,8.602023134E0,5.128862552E-1,8.709648419E0
6.928418333E0,9.378925867E-1,8.512512202E0,1.758854894E-1,8.565829919E0
6.938427333E0,7.568271220E-1,8.376778446E0,-1.749451109E-1,8.412717173E0
6.948436333E0,6.315778624E-1,8.216660047E0,-3.601136398E-1,8.248762014E0
6.958445333E0,5.045339461E-1,8.088521240E0,-2.565595237E-1,8.108301495E0
6.968454333E0,4.099085649E-1,7.936046321E0,7.339432396E-2,7.946964387E0
6.978463333E0,4.053998865E-1,7.749535929E0,4.622540454E-1,7.773888022E0
6.988472333E0,5.088059584E-1,7.556149212E0,2.217182314E-1,7.576505354E0
6.998482333E0,9.300092243E-1,7.040543489E0,-4.691983595E0,8.511690774E0
7.008491333E0,3.467907590E0,5.982374627E0,-1.603621112E1,1.746354077E1
7.018500333E0,2.253926510E0,6.112758180E0,5.113980657E0,8.282438979E0
7.028509333E0,-2.491955842E0,4.438816114E0,1.574137814E1,1.654399946E1
7.038518333E0,-2.861980220E0,1.222857445E-1,-2.890542991E0,4.069536014E0
7.048528333E0,-1.468817648E0,-7.580388844E-1,-4.203401949E0,4.516706342E0
7.058537333E0,-3.935820205E0,-6.785546415E0,7.588240485E0,1.091401459E1
7.068546333E0,-6.798920166E0,-2.837442789E1,2.630275675E-1,2.917880492E1
7.078555333E0,-8.920834381E0,-5.450159772E1,2.116064075E0,5.526737887E1
7.088564333E0,-5.641462659E0,-6.140257987E1,1.104959335E1,6.264340690E1
7.098573333E0,4.786671066E0,-5.478246989E1,3.769981767E0,5.512026841E1
7.108583333E0,4.872804061E0,-3.702245516E1,-4.757978779E0,3.764365508E1
7.118592333E0,3.560120373E-1,-2.059484545E1,-8.188743685E0,2.216596325E1
7.128601333E0,-1.504662542E0,-1.279858676E1,-5.696679085E0,1.408971203E1
7.138610333E0,-2.168968513E0,-1.015372272E1,-1.308457174E0,1.046492092E1
7.148619333E0,-2.366861680E0,-9.231414503E0,1.521770618E0,9.650742653E0
7.158628333E0,-3.242666118E0,-8.010374372E0,1.124838304E0,8.714714129E0
7.168638333E0,-3.363720147E0,-6.189730343E0,2.679230757E-3,7.044670476E0
7.178647333E0,-3.038171445E0,-3.812473483E0,-9.854628289E-1,4.973587918E0
7.188656333E0,-2.551117093E0,-9.415356213E-1,-1.817775385E0,3.270931839E0
7.198665333E0,-1.573164574E0,1.930143667E0,-2.235112216E0,3.346046619E0
7.208674333E0,-2.441507819E-1,4.703139498E0,-2.432672092E0,5.300662623E0
7.218683333E0,1.161024163E0,6.967760857E0,-2.838466519E0,7.612789282E0
7.228692333E0,2.327148999E0,8.522871130E0,-3.155461621E0,9.381465386E0
7.238702333E0,3.011383889E0,9.385233112E0,-2.745400481E0,1.023172797E1
7.248711333E0,3.341951548E0,9.600471459E0,-1.810810767E0,1.032553766E1
7.258720333E0,3.703864376E0,9.417213289E0,-9.725036448E-1,1.016603565E1
7.268729333E0,3.997370628E0,9.176550663E0,-2.948487546E-1,1.001374005E1
7.278738333E0,4.029180651E0,9.202681285E0,2.773386826E-1,1.004990330E1
7.288747333E0,3.966491190E0,9.466215879E0,6.063328743E-1,1.028153369E1
7.298757333E0,3.820648183E0,9.820962360E0,6.901263982E-1,1.056053638E1
7.308766333E0,3.649150810E0,1.011043813E1,5.868897128E-1,1.076483629E1
7.318775333E0,3.356156189E0,1.037711443E1,5.201683044E-1,1.091873909E1
7.328784333E0,2.777437960E0,1.049314190E1,4.805966878E-1,1.086513514E1
7.338793333E0,2.001659939E0,1.053880865E1,4.320484257E-1,1.073591152E1
7.348802333E0,1.062783339E0,1.053591779E1,7.061506927E-1,1.061290351E1
7.358812333E0,2.248710501E-1,1.040867068E1,9.171322668E-1,1.045141732E1
7.368821333E0,-8.294012278E-2,1.032474209E1,7.375384732E-1,1.035138354E1
7.378830333E0,-2.405684122E-1,1.029626732E1,4.798143303E-1,1.031024809E1
7.388839333E0,-4.204292042E-1,1.022808294E1,4.035982132E-1,1.024467339E1
7.398848333E0,-5.181730152E-1,1.009200887E1,4.733027979E-1,1.011638087E1
7.408857333E0,-5.426871745E-1,9.893555542E0,5.415738646E-1,9.923217870E0
7.418867333E0,-6.686437279E-1,9.569864209E0,5.035610425E-1,9.606401987E0
7.428876333E0,-7.411399195E-1,9.393895177E0,5.205225726E-1,9.437451919E0
7.438885333E0,-9.076952992E-1,9.384284109E0,5.558609513E-1,9.444452360E0
7.448894333E0,-1.261086249E0,9.398050793E0,5.480280212E-1,9.498106756E0
7.458903333E0,-1.499692116E0,9.455103246E0,4.848535339E-1,9.585569195E0
7.468912333E0,-1.438439170E0,9.450013245E0,1.274507363E-1,9.559712405E0
7.478922333E0,-3.494466374E-1,9.434961342E0,-8.932686102E-1,9.483593058E0
7.488931333E0,1.183927780E0,9.110867136E0,-4.436124641E0,1.020239123E1
7.498940333E0,3.183315418E0,7.978343909E0,-1.013371238E1,1.328456229E1
7.508949333E0,4.010133053E0,6.760025657E0,-6.465832357E0,1.017772578E1
7.518958333E0,8.119274817E-1,6.266959198E0,7.998634332E0,1.019373116E1
7.528967333E0,-7.970587432E-1,5.561972685E0,1.106721919E1,1.241185657E1
7.538977333E0,-4.760159791E-1,1.065333456E0,6.754013550E0,6.854066357E0
7.548986333E0,1.012386187E0,-1.544965119E1,-7.720992161E0,1.730116666E1
7.558995333E0,-2.499390576E0,-2.698780513E1,6.997282572E-1,2.711232559E1
7.569004333E0,-7.279614503E0,-4.436897175E1,7.649975388E0,4.560833876E1
7.579013333E0,-2.365996730E0,-5.888614875E1,6.519838411E0,5.929320996E1
7.589022333E0,8.789760856E0,-5.334655277E1,4.803242075E-1,5.406796926E1
7.599032333E0,1.143080140E1,-3.919694812E1,-6.478661149E0,4.134050088E1
7.609041333E0,7.603205849E0,-2.423433491E1,-9.104492501E0,2.698154020E1
7.619050333E0,4.104959981E0,-1.520881140E1,-5.952959039E0,1.684031953E1
7.629059333E0,-4.903936976E-1,-1.231300123E1,-4.139374061E-1,1.232971328E1
7.639068333E0,-2.633049740E0,-1.223383227E1,4.113632425E-1,1.252073571E1
7.649077333E0,-3.900760008E0,-1.158034043E1,-3.064501604E-1,1.222350706E1
7.659087333E0,-4.366513538E0,-9.162758836E0,-2.349528193E-1,1.015272342E1
7.669096333E0,-3.985718004E0,-5.992085683E0,-4.883313847E-1,7.213148160E0
7.679105333E0,-3.516400303E0,-2.804616988E0,-5.613994340E-1,4.532782464E0
7.689114333E0,-2.883221692E0,4.663060927E-1,-2.984921730E-1,2.935899569E0
7.699123333E0,-1.711752502E0,3.929420135E0,1.252964759E-1,4.287906066E0
7.709132333E0,-1.562052233E-1,6.852820385E0,3.372440100E-2,6.854683409E0
7.719142333E0,1.275479317E0,8.859629821E0,-1.274118816E0,9.041198306E0
7.729151042E0,2.228025683E0,1.025359668E1,-2.414044032E0,1.076698434E1
7.739160042E0,2.809918658E0,1.118240817E1,-2.504293467E0,1.179887203E1
7.749169042E0,3.199792287E0,1.142654346E1,-1.816948589E0,1.200441037E1
7.759178042E0,3.204157818E0,1.150251633E1,-9.979910731E-1,1.198209061E1
7.769187042E0,2.904100638E0,1.144306067E1,-2.406620042E-1,1.180827491E1
7.779197042E0,2.547816632E0,1.128051626E1,4.548771250E-1,1.157360488E1
7.789206042E0,2.554375746E0,1.128525485E1,8.700237353E-1,1.160339406E1
7.799215042E0,2.973883356E0,1.157079778E1,1.110462193E0,1.199835279E1
7.809224042E0,3.352460164E0,1.191536250E1,1.011873533E0,1.241928906E1
7.819233042E0,3.842384330E0,1.229213369E1,5.009333769E-1,1.288842125E1
7.829242042E0,4.582069389E0,1.259259871E1,1.256087903E-1,1.340092086E1
7.839252042E0,5.254218523E0,1.236364280E1,-1.229576627E-1,1.343434383E1
7.849261042E0,5.950337148E0,1.144167254E1,-2.256359390E-1,1.289842217E1
7.859270042E0,5.814874703E0,1.006438779E1,7.102846742E-2,1.162367044E1
7.869279042E0,4.048326481E0,9.212405789E0,8.143100028E-1,1.009556678E1
7.879288042E0,2.644842989E0,8.994254360E0,1.389417576E0,9.477462061E0
7.889297042E0,1.835340567E0,8.965044009E0,1.727835853E0,9.312674472E0
7.899307042E0,1.269855026E0,9.009038460E0,1.882489883E0,9.290805881E0
7.909316042E0,8.822689743E-1,9.005422541E0,1.839888386E0,9.233700394E0
7.919325042E0,5.454121231E-1,9.029627675E0,1.739575893E0,9.211827974E0
7.929334042E0,3.107058370E-1,9.170039788E0,1.716824377E0,9.334540898E0
7.939343042E0,1.444622601E-1,9.367522480E0,1.770624754E0,9.534487862E0
7.949352042E0,1.292622037E-2,9.455613123E0,1.913092163E0,9.647212460E0
7.959362042E0,1.329510659E-2,9.427756403E0,2.050463140E0,9.648169082E0
7.969371042E0,1.669535020E-1,9.323944936E0,2.085551111E0,9.555801698E0
7.979380042E0,5.716993044E-1,9.199454792E0,1.957376490E0,9.422745422E0
7.989389042E0,9.883947690E-1,8.962223897E0,1.482121672E0,9.137563463E0
7.999398042E0,1.622162048E0,8.575408362E0,-5.927133934E-1,8.747590952E0
8.009407042E0,2.974093271E0,7.953386239E0,-5.166448892E0,9.939505903E0
8.019417042E0,3.938197098E0,6.932553602E0,-4.743134160E0,9.277231133E0
8.029426042E0,2.351353402E0,5.794176144E0,4.334229599E0,7.608343198E0
8.039435042E0,1.399387901E-1,4.065658506E0,4.919722120E0,6.383794145E0
8.049444042E0,-2.394183745E-1,-1.022426587E0,-4.653783735E0,4.770784038E0
8.059453042E0,-1.536122609E0,-5.449411445E0,-3.735189664E-1,5.674087961E0
8.069462042E0,-3.448023548E0,-1.491851585E1,5.210774295E0,1.617415068E1
8.079472042E0,-5.855977120E0,-3.572500946E1,2.633468986E0,3.629743693E1
8.089481042E0,-6.442425368E0,-5.240949670E1,7.165454049E0,5.328793410E1
8.099490042E0,-7.736735351E-1,-5.285838043E1,8.683140972E0,5.357241725E1
8.109499042E0,4.790979295E0,-4.495787524E1,3.414514325E0,4.534118367E1
8.119508042E0,3.730252860E0,-3.466361118E1,-5.137454889E0,3.524023509E1
8.129517042E0,5.591217242E-1,-2.353041902E1,-9.988295639E0,2.556871695E1
8.139527042E0,-2.218544423E0,-1.695454674E1,-7.126655434E0,1.852478913E1
8.149536042E0,-4.333064249E0,-1.446253594E1,-2.426251849E0,1.529140574E1
8.159545042E0,-5.857921904E0,-1.265952127E1,-1.058730780E0,1.398926869E1
8.169554042E0,-6.770152450E0,-1.075740798E1,-2.500499793E0,1.295412250E1
8.179563042E0,-6.844020326E0,-8.710911738E0,-4.114913696E0,1.181749179E1
8.189572042E0,-5.983135934E0,-6.302772809E0,-4.983542140E0,1.001791161E1
8.199582042E0,-4.292876628E0,-3.404633115E0,-4.840377742E0,7.310921493E0
8.209591042E0,-2.572778688E0,-3.976919407E-1,-4.026066424E0,4.794430092E0
8.219600042E0,-1.287070106E0,2.438536849E0,-2.696700776E0,3.856838925E0
8.229609042E0,-2.223403752E-1,5.135882573E0,-1.276387535E0,5.296781115E0
8.239618042E0,8.132037096E-1,7.742716906E0,-3.244117105E-1,7.792060595E0
8.249627042E0,1.953357406E0,9.878438151E0,-1.646557655E-3,1.006971440E1
8.259637042E0,3.049931658E0,1.135189790E1,2.344464322E-1,1.175681225E1
8.269646042E0,4.203245536E0,1.212184640E1,4.595712698E-1,1.283813222E1
8.279655042E0,5.222208526E0,1.225491031E1,2.677662241E-1,1.332388785E1
8.289664042E0,5.596453131E0,1.201754610E1,-2.077632666E-1,1.325838857E1
8.299673042E0,5.819367118E0,1.178733187E1,1.216396455E-1,1.314614097E1
8.309682042E0,6.054771928E0,1.161714515E1,9.138812149E-1,1.313215532E1
8.319692042E0,5.815240154E0,1.141334629E1,1.535929066E0,1.290118482E1
8.329701042E0,5.246561009E0,1.090206342E1,1.250638736E0,1.216328436E1
8.339710042E0,5.135660963E0,1.022344960E1,3.415300190E-1,1.144598524E1
8.349719042E0,5.144424770E0,9.531531032E0,-4.255205941E-1,1.083956908E1
8.359728042E0,5.088706652E0,8.819958217E0,-1.367440377E0,1.027406889E1
8.369737042E0,5.303036342E0,8.221914940E0,-2.695044259E0,1.014816945E1
8.379747042E0,5.535556719E0,7.846359388E0,-3.772062206E0,1.031679200E1
8.389756042E0,5.428644474E0,7.738532639E0,-3.903095970E0,1.022688742E1
8.399765042E0,5.026470058E0,7.929022645E0,-3.376800953E0,9.976852511E0
8.409774042E0,4.249652840E0,8.360066519E0,-2.389628398E0,9.677839912E0
8.419783042E0,3.166097707E0,8.726030298E0,-1.269485482E0,9.369064673E0
8.429792042E0,2.200378001E0,8.846477678E0,-6.627152359E-1,9.140077798E0
8.439802042E0,1.558195994E0,8.928045167E0,-5.389038797E-1,9.079007801E0
8.449811042E0,1.055275660E0,9.176750638E0,-4.783091839E-1,9.249602081E0
8.459820042E0,7.295453294E-1,9.466451522E0,-1.607083102E-1,9.495881632E0
8.469829042E0,6.049985397E-1,9.576251122E0,6.787343410E-1,9.619318536E0
8.479838042E0,4.338476139E-1,9.541830903E0,2.063432118E0,9.772027059E0
8.489847042E0,-5.606441930E-2,9.374083056E0,3.184218228E0,9.900294041E0
8.499857042E0,-5.844039153E-1,9.197590114E0,3.392575572E0,9.820731177E0
8.509866042E0,-7.609822266E-1,9.169960266E0,3.228295709E0,9.751367003E0
8.519875042E0,-4.872743542E-1,9.380206845E0,3.237596290E0,9.935177225E0
8.529884042E0,2.650254880E-1,8.247542117E0,-5.004620183E-1,8.266961456E0
8.539893042E0,1.087559965E0,6.029365776E0,1.483580406E-1,6.128462160E0
8.549902042E0,-3.123620974E-2,4.063705536E0,1.563052107E0,4.354056760E0
8.559912042E0,-8.732933521E-1,-1.702106935E0,-1.539246776E0,2.455420521E0
8.569921042E0,-2.955129581E0,-9.163937634E0,2.068071299E0,9.848221296E0
8.579930042E0,-6.662894635E0,-2.607045886E1,-2.889973180E-1,2.690997045E1
8.589939042E0,-1.082717345E1,-4.153763299E1,7.269938238E-1,4.293170342E1
8.599948042E0,-8.124294505E0,-4.257048516E1,1.741528863E0,4.337376270E1
8.609957042E0,8.635451666E-1,-2.974176418E1,5.992543081E-1,2.976033186E1
8.619967042E0,4.520783553E0,-1.703144699E1,-4.358608103E-1,1.762661751E1
8.629976042E0,4.644062447E0,-1.487986809E1,-3.891998101E-1,1.559260296E1
8.639985042E0,2.886180091E0,-1.542646464E1,-7.365819418E-1,1.571140986E1
8.649994042E0,-1.148249166E-1,-1.450664500E1,1.966545947E0,1.463978267E1
8.660003042E0,-2.988358431E0,-1.295099093E1,5.363640393E0,1.433272795E1
8.670012042E0,-4.835779199E0,-1.220193103E1,7.623139007E0,1.517840999E1
8.680022042E0,-5.876956345E0,-1.173957181E1,7.706793952E0,1.522336478E1
8.690031042E0,-5.982370534E0,-1.107731149E1,6.040742118E0,1.396374421E1
8.700040042E0,-5.058571272E0,-1.008268139E1,2.544198375E0,1.156384680E1
8.710049042E0,-3.734258203E0,-8.569418474E0,-1.442427410E0,9.458340983E0
8.720058042E0,-2.234345793E0,-6.864410151E0,-5.265417695E0,8.935158160E0
8.730067042E0,-5.299178056E-1,-4.633369351E0,-7.071668218E0,8.470974903E0
8.740077042E0,1.314545880E0,-2.275963789E0,-6.409457012E0,6.927422409E0
8.750086042E0,2.547963982E0,-4.884880900E-2,-4.528655659E0,5.196463099E0
8.760095042E0,3.166854044E0,1.968706639E0,-2.971465532E0,4.768058072E0
8.770104042E0,3.455612357E0,4.169702107E0,-2.022388757E0,5.780806925E0
8.780113042E0,3.641157081E0,6.331571515E0,-1.441859645E0,7.444849359E0
8.790122042E0,3.819857639E0,8.178931473E0,-1.345621492E0,9.126715161E0
8.800132042E0,3.986191337E0,9.526574932E0,-1.182578316E0,1.039441402E1
8.810141042E0,4.220925762E0,1.028376714E1,-1.039130913E0,1.116476036E1
8.820150042E0,4.361681692E0,1.045927950E1,-1.019767858E0,1.137808074E1
8.830159042E0,4.443670473E0,1.032506719E1,-1.137562357E0,1.129810904E1
8.840168042E0,4.215687827E0,1.009961727E1,-1.213739882E0,1.101124232E1
8.850177042E0,3.702903094E0,1.006430243E1,-1.142329007E0,1.078455331E1
8.860187042E0,3.113949314E0,1.024276412E1,-1.120810084E0,1.076415870E1
8.870196042E0,2.573811014E0,1.045385329E1,-1.158238696E0,1.082816090E1
8.880205042E0,1.993403963E0,1.061101241E1,-1.300262886E0,1.087464608E1
8.890214042E0,1.368244223E0,1.057691964E1,-1.436172059E0,1.076131551E1
8.900223042E0,8.228027911E-1,1.043323250E1,-1.521182973E0,1.057560128E1
8.910232042E0,4.496020594E-1,1.035215617E1,-1.538698307E0,1.047553683E1
8.920242042E0,3.551585631E-1,1.035357120E1,-1.508258872E0,1.046887859E1
8.930251042E0,3.742602472E-1,1.035622584E1,-1.329557437E0,1.044792837E1
8.940260042E0,3.726702431E-1,1.034902908E1,-1.012673432E0,1.040513304E1
8.950269042E0,2.888277487E-1,1.032191437E1,-7.044082224E-1,1.034995308E1
8.960278042E0,2.918491513E-2,1.028198725E1,-4.574675146E-1,1.029220045E1
8.970287042E0,-3.400704078E-1,1.002763103E1,-6.026498593E-2,1.003357682E1
8.980297042E0,-3.455963190E-1,9.451344071E0,3.238059390E-1,9.463201987E0
8.990306042E0,4.774697430E-2,8.897086499E0,7.741246478E-1,8.930828457E0
9.000315042E0,1.153708054E0,8.092903728E0,1.195181477E0,8.261633724E0
9.010324042E0,2.174679781E0,7.312678753E0,1.080884637E0,7.705375675E0
9.020333042E0,3.157155852E0,6.097083549E0,3.466452364E-1,6.874752636E0
9.030342042E0,4.289606865E0,3.903528664E0,-4.943083354E-1,5.820876551E0
9.040352042E0,4.772022914E0,6.071134776E-1,2.750553632E-1,4.818344624E0
9.050361042E0,3.951715568E0,-2.807502589E0,4.651776971E0,6.718419137E0
9.060370042E0,3.267781371E0,-5.976360766E0,8.747817024E0,1.108691056E1
9.070379042E0,2.685495172E0,-1.280989528E1,5.830893735E0,1.432845502E1
9.080388042E0,1.808852242E-1,-2.423778009E1,-2.621415535E0,2.437979743E1
9.090397042E0,-3.007060457E0,-3.342892014E1,-3.462715262E0,3.374204367E1
9.100407042E0,-4.658648911E0,-3.996661712E1,1.659023773E0,4.027140243E1
9.110416042E0,-6.484866214E0,-4.240223971E1,3.272325243E0,4.301989697E1
9.120425042E0,-7.954080888E0,-3.513030085E1,2.263364355E-1,3.602022583E1
9.130434042E0,-9.177479201E0,-2.318889953E1,-3.173620734E0,2.514006870E1
9.140443042E0,-9.202674853E0,-1.578913118E1,-3.185767740E0,1.855087609E1
9.150453042E0,-8.067673577E0,-1.213891793E1,8.220088854E-3,1.457534744E1
9.160462042E0,-7.503333651E0,-9.880933743E0,1.579551634E0,1.250711201E1
9.170471042E0,-7.735432445E0,-7.512975710E0,-3.259365913E-1,1.078832488E1
9.180480042E0,-6.586703660E0,-4.618374751E0,-1.388891473E0,8.163520685E0
9.190489042E0,-4.531710537E0,-1.762396991E0,-6.630801022E-1,4.907353540E0
9.200498042E0,-2.853448840E0,7.386740756E-1,6.450181261E-1,3.017260024E0
9.210508042E0,-1.753591961E0,2.941054164E0,1.841120979E0,3.887751383E0
9.220517042E0,-3.258688366E-1,4.776878150E0,2.334261113E0,5.326680983E0
9.230526042E0,1.303678391E0,6.320372343E0,2.156264852E0,6.804128307E0
9.240535042E0,2.820406809E0,7.624449368E0,1.556620023E0,8.277076092E0
9.250544042E0,3.774618024E0,8.840799447E0,1.015278878E0,9.666347154E0
9.260553042E0,4.203307225E0,9.889000561E0,6.011591848E-1,1.076204052E1
9.270563042E0,4.345186989E0,1.055169124E1,3.134189451E-1,1.141565020E1
9.280572042E0,4.054762804E0,1.083044438E1,2.512946177E-1,1.156731498E1
9.290581042E0,3.429821166E0,1.085493837E1,3.379351509E-1,1.138892270E1
9.300590042E0,3.145125206E0,1.075524802E1,4.819696140E-1,1.121603616E1
9.310599042E0,3.326733584E0,1.072930509E1,6.671696448E-1,1.125301113E1
9.320608042E0,3.968163786E0,1.096730314E1,1.555973467E0,1.176644022E1
9.330618042E0,4.576350812E0,1.160515134E1,2.130303215E0,1.265546191E1
9.340627042E0,4.371816086E0,1.197725528E1,1.994964731E0,1.290532077E1
9.350636042E0,4.311653792E0,1.203672731E1,1.783026552E0,1.290938985E1
9.360645042E0,4.569669199E0,1.201370799E1,1.724659499E0,1.296863550E1
9.370654042E0,4.471866623E0,1.196954046E1,1.995101409E0,1.293243672E1
9.380663042E0,3.829143895E0,1.181580079E1,2.084528872E0,1.259447307E1
9.390673042E0,2.633551139E0,1.114609579E1,1.785583101E0,1.159134807E1
9.400682042E0,1.781116559E0,1.020921982E1,1.301728345E0,1.044485721E1
9.410691042E0,1.312841270E0,9.756937687E0,8.823588753E-1,9.884328122E0
9.420700042E0,8.406646463E-1,9.543312002E0,5.962509589E-1,9.598803896E0
9.430709042E0,4.389575688E-1,9.392840340E0,4.125712042E-1,9.412138354E0
9.440718042E0,1.672447664E-1,9.264531963E0,3.047662354E-1,9.271052031E0
9.450728042E0,7.170871787E-2,9.091953732E0,2.396036947E-1,9.095393050E0
9.460737042E0,9.557716180E-2,8.830069807E0,1.108642320E-1,8.831282957E0
9.470746042E0,1.169930642E-1,8.390341648E0,-2.682610448E-1,8.395444261E0
9.480755042E0,2.861189530E-1,7.738741969E0,-1.263557721E0,7.846436735E0
9.490764042E0,6.464159761E-1,6.984385661E0,-3.788494929E0,7.971962776E0
9.500773042E0,1.413126281E0,5.644068763E0,-7.397401984E0,9.411375787E0
9.510783042E0,1.610723140E0,3.792554943E0,-2.091138857E0,4.620688666E0
9.520792042E0,3.871940324E-1,2.845402486E0,8.290299296E0,8.773556688E0
9.530801042E0,4.337661915E-2,1.822705758E-1,3.920337655E0,3.924812279E0
9.540810042E0,-7.716288368E-1,-1.026492273E1,-1.043861077E1,1.466044489E1
9.550819042E0,-3.210147413E0,-1.990611362E1,-4.718115971E0,2.070794592E1
9.560828042E0,-5.039850826E0,-3.307549805E1,3.138485108E0,3.360414791E1
9.570838042E0,-6.033360593E0,-5.212231421E1,7.104833626E0,5.294918073E1
9.580847042E0,-4.358103488E0,-5.769080479E1,4.189335010E0,5.800665954E1
9.590856042E0,2.172411280E-1,-4.596034996E1,-5.588306206E0,4.629935343E1
9.600865042E0,-2.052806704E0,-2.817690192E1,-5.984249829E0,2.887841865E1
9.610874042E0,-4.740839128E0,-1.641295892E1,8.125030670E-1,1.710324348E1
9.620883042E0,-3.281511219E0,-1.144902600E1,1.488006602E0,1.200261121E1
9.630893042E0,-3.081547845E0,-9.300863637E0,3.691139665E-1,9.805011303E0
9.640902042E0,-2.844351449E0,-8.628105808E0,-8.563715100E-2,9.085256118E0
9.650911042E0,-1.775255749E0,-7.893149393E0,-1.723080897E-1,8.092158574E0
9.660920042E0,-9.504803994E-1,-6.418204447E0,-4.247746356E-1,6.502091572E0
9.670929042E0,-2.074618426E-1,-4.236871412E0,-4.342433242E-1,4.264116209E0
9.680938042E0,5.184893496E-1,-1.639720652E0,-1.275252883E-1,1.724464474E0
9.690948042E0,1.332336911E0,1.278757412E0,2.751277225E-1,1.867093309E0
9.700957042E0,2.062963463E0,4.049047735E0,4.646570317E-1,4.567987738E0
9.710966042E0,2.616115034E0,6.353559385E0,3.414446497E-1,6.879560973E0
9.720975042E0,3.115331596E0,8.323838925E0,1.122337961E-1,8.888429661E0
9.730983792E0,3.732541460E0,1.003129255E1,-6.319074261E-1,1.072184700E1
9.740992792E0,4.128644128E0,1.095101865E1,-1.650548672E0,1.181925643E1
9.751002792E0,4.235354936E0,1.113855756E1,-1.964961498E0,1.207753161E1
9.761011792E0,4.458093799E0,1.123450219E1,-1.811406744E0,1.222169522E1
9.771020792E0,4.845013999E0,1.155807657E1,-1.349966558E0,1.260498729E1
9.781029792E0,5.352200900E0,1.179069519E1,-7.912743120E-1,1.297276618E1
9.791038792E0,5.881227736E0,1.164227531E1,-5.031834586E-1,1.305314551E1
9.801047792E0,6.320425553E0,1.137545634E1,-2.445830373E-1,1.301570616E1
9.811057792E0,6.419665082E0,1.117203755E1,4.038087130E-2,1.288519124E1
9.821066792E0,5.871758755E0,1.057262310E1,1.025705414E-1,1.209414862E1
9.831075792E0,4.964727554E0,9.655539367E0,-1.786744650E-1,1.085863181E1
9.841084792E0,4.185385509E0,9.009914957E0,-5.543429410E-1,9.950040979E0
9.851093792E0,3.385969680E0,8.546614333E0,-5.524997525E-1,9.209487674E0
9.861102792E0,2.827205074E0,8.335196557E0,-2.157877661E-1,8.804269109E0
9.871112792E0,2.394253107E0,8.402208572E0,2.549248615E-1,8.740397217E0
9.881121792E0,1.964064389E0,8.605454280E0,6.581801355E-1,8.851248125E0
9.891130792E0,1.650043911E0,8.902650125E0,9.563296616E-1,9.104635664E0
9.901139792E0,1.512301345E0,9.181095704E0,9.332704358E-1,9.351500809E0
9.911148792E0,1.475992036E0,9.407599881E0,7.941011484E-1,9.555735694E0
9.921158792E0,1.364078813E0,9.569575356E0,8.690098281E-1,9.705290392E0
9.931167792E0,1.090084720E0,9.617162336E0,1.069275649E0,9.737630436E0
9.941176792E0,9.317164651E-1,9.634967108E0,1.295641393E0,9.766236397E0
9.951185792E0,1.136926180E0,9.528291090E0,1.500372294E0,9.712468752E0
9.961194792E0,1.501073375E0,9.316496168E0,1.756352724E0,9.598702882E0
9.971203792E0,1.713269854E0,8.976474731E0,2.134127440E0,9.384396204E0
9.981213792E0,1.656180564E0,8.443434951E0,2.444698645E0,8.944891240E0
9.991222792E0,1.460414468E0,7.602936877E0,2.412026889E0,8.108966228E0
1.000123179E1,1.262383454E0,6.438534046E0,2.508531236E0,7.024319299E0
1.001124079E1,1.145568218E0,4.992059779E0,3.299470064E0,6.092576637E0
1.002124979E1,1.244013256E0,2.405664972E0,1.643612559E0,3.168004922E0
1.003125879E1,1.228024630E0,-3.023814484E0,-5.832820977E0,6.683808725E0
1.004126879E1,1.685789549E0,-1.003855597E1,-4.970603421E0,1.132790319E1
1.005127779E1,-1.493871871E-1,-1.782412712E1,-1.935930949E0,1.792957480E1
1.006128679E1,-3.963160908E0,-3.151774601E1,-6.751183498E0,3.247542820E1
1.007129579E1,-6.978949504E0,-4.825480206E1,-5.699403888E0,4.908884662E1
1.008130479E1,-7.466718387E0,-5.407583622E1,-3.727235989E-1,5.459017191E1
1.009131379E1,-4.609097559E0,-4.472972157E1,-3.163081713E0,4.507767582E1
1.010132379E1,-3.964156104E0,-2.777303006E1,-9.367943480E0,2.957725642E1
1.011133279E1,-3.090670671E0,-1.784349426E1,-9.235911012E0,2.032841816E1
1.012134179E1,-1.718973521E0,-1.322331915E1,-5.801477562E0,1.454194558E1
1.013135079E1,-1.387140086E0,-1.168257549E1,-1.965236171E0,1.192765194E1
1.014135979E1,-2.964351225E0,-1.014338719E1,-9.991722107E-3,1.056767626E1
1.015136879E1,-4.145237649E0,-8.056186137E0,4.455788827E-1,9.071034714E0
1.016137879E1,-3.819230525E0,-5.735208728E0,1.157238968E0,6.987012451E0
1.017138779E1,-2.958810111E0,-3.109191434E0,1.964386278E0,4.720216319E0
1.018139679E1,-2.082657763E0,-3.402974260E-1,2.411813904E0,3.204701547E0
1.019140579E1,-9.108789620E-1,2.212111609E0,2.343833005E0,3.349132934E0
1.020141479E1,5.615620597E-1,4.370072739E0,1.887057874E0,4.793107041E0
1.021142379E1,1.828860244E0,6.300923334E0,1.351478502E0,6.698720684E0
1.022143379E1,2.806065343E0,8.242578415E0,6.161959577E-1,8.728905951E0
1.023144279E1,3.515568244E0,9.939769596E0,-3.444629824E-1,1.054878640E1
1.024145179E1,3.880949933E0,1.090812581E1,-1.233038617E0,1.164342584E1
1.025146079E1,4.041309530E0,1.125543873E1,-1.405133868E0,1.204124100E1
1.026146979E1,3.832231225E0,1.138390673E1,-1.167391854E0,1.206822822E1
1.027147879E1,3.658331523E0,1.133962109E1,-7.556684232E-1,1.193907160E1
1.028148879E1,3.863370279E0,1.125130825E1,-2.462601650E-1,1.189866427E1
1.029149779E1,4.302390633E0,1.127654250E1,9.343726359E-2,1.206978485E1
1.030150679E1,4.592930885E0,1.142579852E1,3.682915556E-1,1.231988331E1
1.031151579E1,4.792934311E0,1.157149477E1,7.726020328E-1,1.254865030E1
1.032152479E1,5.088999013E0,1.185483797E1,1.022605585E0,1.294143796E1
1.033153479E1,5.283172765E0,1.211758729E1,1.040789183E0,1.326013115E1
1.034154379E1,5.463142462E0,1.212209198E1,8.345706781E-1,1.332244526E1
1.035155279E1,5.218751652E0,1.114222961E1,1.999888086E-1,1.230547216E1
1.036156179E1,4.577129954E0,9.452419959E0,-3.287597001E-1,1.050744710E1
1.037157079E1,3.825575632E0,8.802990766E0,-4.594777143E-1,9.609307733E0
1.038157979E1,2.844961606E0,8.725591173E0,-2.517343283E-1,9.181128363E0
1.039158979E1,2.162447113E0,8.706433355E0,3.252595568E-1,8.976856525E0
1.040159879E1,1.762431343E0,8.736546516E0,9.260119215E-1,8.960519368E0
1.041160779E1,1.463657773E0,8.791829601E0,1.362580464E0,9.016384382E0
1.042161679E1,1.166607669E0,8.854389546E0,1.559308573E0,9.066015162E0
1.043162579E1,9.083330843E-1,8.895879634E0,1.527397978E0,9.071641970E0
1.044163479E1,8.360933661E-1,8.909483181E0,1.440470932E0,9.063823651E0
1.045164479E1,1.122480195E0,8.866548246E0,1.307980042E0,9.032521873E0
1.046165379E1,1.614743978E0,8.634094527E0,1.015507139E0,8.842298409E0
1.047166279E1,2.185692281E0,8.232714747E0,3.157053526E-1,8.523761653E0
1.048167179E1,3.017025282E0,7.684621310E0,-1.002959014E0,8.316355754E0
1.049168079E1,3.982449118E0,6.756218535E0,-2.209653586E0,8.147942001E0
1.050168979E1,4.198535897E0,5.416229081E0,-1.000454067E0,6.925615458E0
1.051169979E1,3.513124108E0,3.943019589E0,2.855618742E0,6.003665787E0
1.052170879E1,2.948443582E0,3.670998931E-2,1.143914918E0,3.162784931E0
1.053171779E1,3.364373866E-1,-6.904046087E0,-3.424610127E0,7.714077846E0
1.054172679E1,-4.007086362E0,-1.473177215E1,-1.738971291E0,1.536573698E1
1.055173579E1,-7.809511989E0,-2.676878715E1,2.539263325E0,2.800007680E1
1.056174479E1,-9.859231217E0,-4.079530323E1,5.926847713E0,4.238618560E1
1.057175479E1,-5.946145864E0,-5.058369192E1,3.055411084E0,5.102354433E1
1.058176379E1,1.774770430E0,-4.911588643E1,-4.044471120E0,4.931407361E1
1.059177279E1,4.947411025E0,-4.040077990E1,-7.414782833E0,4.137244127E1
1.060178179E1,2.379270641E0,-2.691862789E1,-6.868726566E0,2.788284170E1
1.061179079E1,-1.803703038E0,-1.864531827E1,-4.257597452E0,1.921011124E1
1.062179979E1,-3.469027331E0,-1.522332886E1,-3.438097315E0,1.598763289E1
1.063180979E1,-4.587185118E0,-1.275623538E1,-3.108375163E0,1.390776059E1
1.064181879E1,-4.560858030E0,-1.035531367E1,-1.906188794E0,1.147464609E1
1.065182779E1,-4.040659904E0,-7.738465396E0,-1.354623281E0,8.834352459E0
1.066183679E1,-3.411431673E0,-4.866120694E0,-1.701570160E0,6.181612870E0
1.067184579E1,-2.339816407E0,-2.105353730E0,-2.123451447E0,3.796880456E0
1.068185579E1,-9.858874829E-1,4.734250778E-1,-2.107736471E0,2.374585956E0
1.069186479E1,5.529669450E-1,3.033425553E0,-1.706571869E0,3.524177999E0
1.070187379E1,2.017778958E0,5.690140729E0,-1.070042803E0,6.131404818E0
1.071188279E1,3.337045149E0,8.106769815E0,-2.854957860E-2,8.766778327E0
1.072189179E1,4.504607815E0,1.006235998E1,1.540647769E0,1.113176426E1
1.073190333E1,5.864705844E0,1.148131667E1,2.291585795E0,1.309453216E1
1.074191333E1,7.101524101E0,1.209015449E1,3.006337742E0,1.434020735E1
1.075192233E1,7.503020241E0,1.230273586E1,5.317358512E0,1.535991289E1
1.076193133E1,5.841181326E0,1.183215078E1,-7.122867608E-1,1.321463369E1
1.077194033E1,6.059938527E0,1.205237680E1,1.728110234E-1,1.349120102E1
1.078194933E1,5.998225844E0,1.239932485E1,3.442828882E-1,1.377826189E1
1.079195833E1,6.241534334E0,1.243441282E1,8.436366398E-2,1.391324873E1
1.080196833E1,7.175783740E0,1.177677881E1,-3.723225896E-1,1.379576078E1
1.081197733E1,7.545090957E0,9.820585799E0,-1.290978677E0,1.245146292E1
1.082198633E1,6.338395216E0,8.351702077E0,-1.974680740E0,1.066890554E1
1.083199533E1,4.966807408E0,8.312849668E0,-1.768230758E0,9.843743467E0
1.084200433E1,3.725917735E0,8.686933476E0,-1.163715125E0,9.523628986E0
1.085201333E1,2.651359711E0,9.105507578E0,-5.655332693E-1,9.500516009E0
1.086202333E1,1.972773232E0,9.230922167E0,-1.598464306E-1,9.440726093E0
1.087203233E1,1.373042010E0,9.279207305E0,1.557078445E-1,9.381533856E0
1.088204133E1,8.197277404E-1,9.389415041E0,3.874341702E-1,9.433089293E0
1.089205033E1,3.813365476E-1,9.548085085E0,5.817406547E-1,9.573388561E0
1.090205933E1,4.620937586E-2,9.696325450E0,7.464976501E-1,9.725128343E0
1.091206833E1,-2.291066270E-1,9.764042639E0,9.376304121E-1,9.811634385E0
1.092207833E1,-3.149203639E-1,9.657626823E0,1.196036267E0,9.736500061E0
1.093208733E1,-8.042962074E-2,9.427545903E0,1.589370424E0,9.560919884E0
1.094209633E1,9.935471892E-2,9.243182024E0,2.016003013E0,9.461001715E0
1.095210533E1,1.790670325E-1,9.149587398E0,2.479556236E0,9.481308648E0
1.096211433E1,2.082620341E-1,9.030473183E0,2.916068134E0,9.491905622E0
1.097212333E1,1.643277367E-1,8.911379433E0,3.277501198E0,9.496404641E0
1.098213333E1,9.924793415E-2,8.781602821E0,3.303913071E0,9.383082640E0
1.099214233E1,1.221425609E-1,8.596517980E0,2.825464650E0,9.049767438E0
1.100215133E1,1.411137497E0,7.844954302E0,-1.544139726E0,8.119050716E0
1.101216033E1,2.782204025E0,6.227416817E0,-5.399210175E0,8.699014310E0
1.102216933E1,1.073058285E0,4.896240871E0,2.899737153E0,5.790777522E0
1.103217833E1,-2.483546011E-1,2.035216963E-1,1.861665756E0,1.889153375E0
1.104218833E1,-1.163796036E0,-5.905631676E0,-2.201869772E0,6.409300835E0
1.105219733E1,-3.413065092E0,-8.980068430E0,6.692815129E-1,9.630087231E0
1.106220633E1,-5.617267465E0,-1.959232396E1,4.683688442E-1,2.038706014E1
1.107221533E1,-7.374306067E0,-3.616868215E1,-6.924904275E-1,3.691928360E1
1.108222433E1,-7.658359126E0,-4.706805585E1,2.885873405E0,4.777426725E1
1.109223433E1,-1.606901400E0,-4.804426487E1,5.305676944E0,4.836304092E1
1.110224333E1,7.074164395E0,-4.225031502E1,-8.971498458E-1,4.284784474E1
1.111225233E1,6.532358469E0,-3.117269948E1,-8.639421340E0,3.300073485E1
1.112226133E1,3.370722188E0,-2.279171454E1,-8.459466262E0,2.454356513E1
1.113227033E1,4.886112836E-1,-1.786952373E1,-5.379969327E0,1.866822673E1
1.114227933E1,-2.630067660E0,-1.526380797E1,-2.891615371E0,1.575634885E1
1.115228933E1,-4.639224753E0,-1.234060477E1,-1.576321632E0,1.327771525E1
1.116229833E1,-5.237718265E0,-9.306716115E0,-1.028973349E0,1.072881371E1
1.117230733E1,-5.217678103E0,-6.833640933E0,-1.084091543E0,8.665914127E0
1.118231633E1,-4.594616345E0,-4.453438246E0,-1.839831083E0,6.657971912E0
1.119232533E1,-3.476752380E0,-1.763914928E0,-2.763609295E0,4.778780108E0
1.120233433E1,-2.006977689E0,1.229204013E0,-3.149221473E0,3.931475275E0
1.121234433E1,-5.143444777E-2,3.708000696E0,-2.797096299E0,4.644960966E0
1.122235333E1,1.609695492E0,5.789472644E0,-2.157481073E0,6.384656424E0
1.123236233E1,2.824294623E0,7.725231392E0,-1.185511279E0,8.310311497E0
1.124237133E1,3.744881424E0,9.544544595E0,5.775283571E-1,1.026917754E1
1.125238033E1,4.860500058E0,1.125288115E1,2.276841456E0,1.246738955E1
1.126239033E1,5.960387342E0,1.200233165E1,2.498780712E0,1.363180426E1
1.127239933E1,6.004598140E0,1.184517252E1,1.673687128E0,1.338523588E1
1.128240833E1,5.452630337E0,1.147926546E1,1.232186093E0,1.276804589E1
1.129241733E1,4.976768725E0,1.130238719E1,1.277624806E0,1.241549469E1
1.130242633E1,4.722363389E0,1.111310463E1,1.130356833E0,1.212763444E1
1.131243533E1,4.641745780E0,1.071667394E1,8.090675354E-1,1.170672860E1
1.132244533E1,4.991299056E0,1.035318996E1,4.966262448E-1,1.150427078E1
1.133245433E1,5.360898634E0,9.957121793E0,-2.117206621E-1,1.131054084E1
1.134246333E1,5.277859401E0,9.107558196E0,-1.348328168E0,1.061232326E1
1.135247233E1,4.884895226E0,8.548938602E0,-1.530073664E0,9.964320248E0
1.136248133E1,4.205533844E0,8.577729122E0,-9.767294276E-1,9.603017868E0
1.137249033E1,3.498569219E0,8.787231935E0,-4.515570394E-1,9.468861358E0
1.138250033E1,2.890107958E0,9.044752668E0,5.122749288E-2,9.495414635E0
1.139250933E1,2.506535874E0,9.335994294E0,3.670694876E-1,9.673585248E0
1.140251833E1,2.160798929E0,9.656235770E0,4.609581562E-1,9.905777288E0
1.141252733E1,1.728261677E0,9.919282122E0,4.614237408E-1,1.007928361E1
1.142253633E1,1.380500865E0,1.008478171E1,4.381598624E-1,1.018825740E1
1.143254533E1,1.189774192E0,1.016091597E1,3.794187339E-1,1.023736951E1
1.144255533E1,1.066494567E0,1.014977468E1,4.105797887E-1,1.021390780E1
1.145256433E1,9.855489291E-1,1.005263489E1,4.615184657E-1,1.011136856E1
1.146257333E1,1.109410060E0,9.734572088E0,3.740919205E-1,9.804724839E0
1.147258233E1,1.481167699E0,9.368408918E0,1.568293405E-1,9.486070781E0
1.148259133E1,1.969389156E0,9.007643899E0,-1.330756847E-1,9.221380124E0
1.149260033E1,2.610392949E0,8.677320653E0,-7.387348866E-1,9.091522111E0
1.150261033E1,3.010492773E0,8.362014227E0,-8.286252292E-1,8.925971568E0
1.151261933E1,2.698151470E0,8.258568796E0,5.749134457E-1,8.707152542E0
1.152262833E1,2.589185975E0,8.087674563E0,1.526163046E0,8.628066846E0
1.153263733E1,2.837846130E0,6.663531396E0,-2.430721168E-1,7.246730668E0
1.154264633E1,1.762420672E0,4.145983461E0,-2.841757332E0,5.326433161E0
1.155265633E1,8.757157805E-1,-8.647926700E-1,-8.881507763E0,8.966377453E0
1.156266533E1,6.958062373E-2,-6.252397876E0,-2.775234437E0,6.840997504E0
1.157267433E1,-2.528120578E0,-6.884364944E0,5.250273407E0,9.019492513E0
1.158268333E1,-5.167739958E0,-1.560700561E1,1.855631429E0,1.654471301E1
1.159269233E1,-6.474351751E0,-2.909058083E1,-1.581383128E0,2.984426069E1
1.160270133E1,-5.300437839E0,-3.851699412E1,2.281681781E0,3.894688112E1
1.161271133E1,-2.001308521E0,-4.240141643E1,4.880723530E0,4.272829054E1
1.162272033E1,2.233305281E0,-3.985914997E1,4.507955346E0,4.017537990E1
1.163272933E1,3.812895944E0,-3.385912786E1,3.263540825E-1,3.407470062E1
1.164273833E1,6.066758866E-1,-2.650847846E1,-3.043273433E0,2.668949230E1
1.165274733E1,-2.272187803E0,-2.157070832E1,-3.791180263E0,2.201888605E1
1.166275633E1,-4.833914815E0,-1.826914116E1,-5.086658957E0,1.957044584E1
1.167276633E1,-6.797849541E0,-1.574072208E1,-6.044876100E0,1.818025349E1
1.168277533E1,-7.520243214E0,-1.307853859E1,-6.086601831E0,1.626803465E1
1.169278433E1,-7.423581138E0,-1.054263741E1,-5.783847038E0,1.413186637E1
1.170279333E1,-6.771214889E0,-8.213017817E0,-5.355346702E0,1.191565152E1
1.171280233E1,-5.559584098E0,-5.381670282E0,-4.818357128E0,9.115257308E0
1.172281233E1,-3.846140874E0,-2.305943048E0,-3.928558255E0,5.961857339E0
1.173281971E1,-1.819802469E0,6.056914347E-1,-3.009987574E0,3.569113102E0
1.174282871E1,6.365746737E-2,3.590695610E0,-2.271548556E0,4.249362314E0
1.175283771E1,1.530560737E0,6.396772063E0,-1.731216713E0,6.801354299E0
1.176284671E1,2.592156360E0,8.652246038E0,-9.412684035E-1,9.081113495E0
1.177285571E1,3.037563043E0,1.026791417E1,5.722599792E-1,1.072307475E1
1.178286471E1,3.524303985E0,1.175595805E1,2.569441974E0,1.253895132E1
1.179287471E1,5.528244776E0,1.257363502E1,2.916925628E0,1.404158976E1
1.180288371E1,6.341418226E0,1.215472412E1,1.920613875E0,1.384339775E1
1.181289271E1,5.914325316E0,1.167312639E1,1.707800953E0,1.319688250E1
1.182290171E1,5.800677663E0,1.135613246E1,1.812544466E0,1.288002031E1
1.183291071E1,6.126505569E0,1.126587133E1,1.951781874E0,1.297163751E1
1.184292071E1,6.579848385E0,1.122564599E1,1.924333874E0,1.315342517E1
1.185292971E1,6.872134323E0,1.108386037E1,1.951725740E0,1.318663809E1
1.186293871E1,6.582368535E0,1.012912466E1,1.654330505E0,1.219276635E1
1.187294771E1,6.133623385E0,8.540693443E0,6.297915380E-2,1.051516746E1
1.188295671E1,6.241275887E0,7.688005094E0,-1.168284212E0,9.971150136E0
1.189296571E1,6.555906376E0,7.445803481E0,-1.327812628E0,1.000914503E1
1.190297571E1,6.568939235E0,7.762071190E0,-8.847422004E-1,1.020703094E1
1.191298471E1,5.753160265E0,8.378000515E0,-5.094058462E-1,1.017591470E1
1.192299371E1,4.647331333E0,8.923090237E0,-2.942751610E-1,1.006507952E1
1.193300271E1,3.682576418E0,9.120541939E0,-7.187046647E-2,9.836199454E0
1.194301171E1,2.851861905E0,9.174962559E0,5.330073282E-2,9.608116114E0
1.195302071E1,2.140702780E0,9.295509342E0,1.253748286E-1,9.539644709E0
1.196303071E1,1.623324767E0,9.424794788E0,1.394036146E-1,9.564589561E0
1.197303971E1,1.320426571E0,9.428300194E0,1.234953873E-1,9.521114535E0
1.198304871E1,1.271816182E0,9.325419019E0,1.630017344E-1,9.413157061E0
1.199305771E1,1.349334182E0,9.250461223E0,2.868515360E-1,9.352754641E0
1.200306671E1,1.483547223E0,9.223971582E0,4.623405111E-1,9.353946913E0
1.201307671E1,1.958746200E0,9.274407325E0,5.197006734E-1,9.493229519E0
1.202308571E1,2.583795134E0,9.190300975E0,6.786619087E-1,9.570695445E0
1.203309471E1,2.987245413E0,9.146045154E0,1.337141422E0,9.713996310E0
1.204310371E1,3.267660042E0,8.922660466E0,1.615811533E0,9.638584899E0
1.205311271E1,4.432525095E0,8.053825616E0,4.478362003E-1,9.203909117E0
1.206312171E1,5.068676430E0,6.384722121E0,8.970881577E-1,8.201275783E0
1.207313171E1,3.416908759E0,4.357521690E0,4.104353625E0,6.892675781E0
1.208314071E1,3.509738570E0,-1.959927630E0,1.341312825E0,4.237770787E0
1.209314971E1,2.623138125E0,-9.101528547E0,1.312118701E0,9.562443778E0
1.210315871E1,-1.838216667E0,-1.583426116E1,2.725932176E0,1.617199966E1
1.211316771E1,-5.423376718E0,-3.083128523E1,-1.781587114E0,3.135530604E1
1.212317671E1,-8.801075803E0,-4.052828194E1,1.101932494E0,4.148752617E1
1.213318671E1,-8.979384305E0,-4.149587919E1,3.907722287E0,4.263575525E1
1.214319571E1,-5.082327340E0,-3.923012990E1,9.244868946E-1,3.956877328E1
1.215320471E1,-4.816457368E0,-3.619279139E1,-4.551052834E0,3.679440844E1
1.216321371E1,-8.242212964E0,-2.711905641E1,-5.112014823E0,2.880121509E1
1.217322271E1,-9.870586510E0,-1.883399856E1,-3.061082883E0,2.148297485E1
1.218323271E1,-8.020648515E0,-1.472302238E1,-1.292957375E0,1.681576431E1
1.219324171E1,-5.939658962E0,-1.282847188E1,1.772069601E-1,1.413791504E1
1.220325071E1,-6.401608295E0,-1.115786039E1,2.548836386E-1,1.286636712E1
1.221325971E1,-6.715909000E0,-8.951549805E0,-1.268520691E0,1.126245188E1
1.222326871E1,-6.046032679E0,-6.389478831E0,-2.783281667E0,9.226408170E0
1.223327771E1,-4.662116602E0,-3.776951063E0,-3.465010879E0,6.928707739E0
1.224328771E1,-2.154955661E0,-1.577889855E0,-3.196944108E0,4.165815877E0
1.225329671E1,5.701836330E-1,8.583285731E-1,-2.433701202E0,2.642865652E0
1.226330571E1,3.065059867E0,3.310821556E0,-1.495389150E0,4.753137919E0
1.227331471E1,4.805035416E0,5.741676918E0,-1.742540066E-1,7.489030888E0
1.228332371E1,5.775297239E0,7.806182585E0,9.204464686E-1,9.753859054E0
1.229333271E1,6.536825742E0,9.254254897E0,1.043295300E0,1.137803979E1
1.230334271E1,7.124409519E0,9.890682220E0,2.695870471E-1,1.219243548E1
1.231335171E1,7.308148330E0,1.002237555E1,-8.406074166E-2,1.240419727E1
1.232336071E1,7.019988188E0,1.002149379E1,-5.448081058E-2,1.223574845E1
1.233336971E1,6.736480089E0,1.018476676E1,-6.500583529E-2,1.221121877E1
1.234337871E1,6.575876371E0,1.051370656E1,1.585764885E-3,1.240081361E1
1.235338771E1,6.525179257E0,1.080488737E1,1.991280985E-1,1.262391411E1
1.236339771E1,6.286253840E0,1.081367457E1,5.624903782E-1,1.252074041E1
1.237340671E1,5.862817193E0,1.071597110E1,9.697713140E-1,1.225337172E1
1.238341571E1,5.395085549E0,1.056039423E1,1.221323282E0,1.192143049E1
1.239342471E1,4.667693092E0,1.012254069E1,1.140997596E0,1.120513563E1
1.240343371E1,3.913799298E0,9.661516390E0,9.844405894E-1,1.047052278E1
1.241344371E1,3.359245273E0,9.512344564E0,9.078116588E-1,1.012883754E1
1.242345271E1,2.912624124E0,9.543404388E0,8.571888046E-1,1.001472512E1
1.243346171E1,2.657710957E0,9.509362484E0,7.937934387E-1,9.905630237E0
1.244347071E1,2.333770532E0,9.403398657E0,7.386951256E-1,9.716792767E0
1.245347971E1,1.988614947E0,9.256659856E0,6.834224193E-1,9.492492155E0
1.246348871E1,1.717825566E0,9.091640321E0,6.281650619E-1,9.273803952E0
1.247349871E1,1.454875547E0,9.055789288E0,6.387451601E-1,9.194127357E0
1.248350771E1,1.380617516E0,9.047369297E0,8.534072641E-1,9.191806127E0
1.249351671E1,1.659948364E0,9.004496343E0,1.240959256E0,9.239933053E0
1.250352571E1,2.069770207E0,8.830806556E0,1.659946171E0,9.220765393E0
1.251353471E1,2.217852259E0,8.633386429E0,2.012090056E0,9.137983162E0
1.252354371E1,2.231526558E0,8.467777494E0,2.186013000E0,9.025609082E0
1.253355371E1,2.200086371E0,8.356738869E0,2.244282843E0,8.928172828E0
1.254356271E1,2.346051731E0,8.102552803E0,2.090206372E0,8.690470835E0
1.255357171E1,2.607242177E0,7.488726722E0,1.740332669E0,8.118343272E0
1.256358071E1,2.768798699E0,6.767165692E0,1.389954350E0,7.442630640E0
1.257358971E1,2.996617915E0,5.853532400E0,9.736877060E-1,6.647678409E0
1.258359971E1,3.015631891E0,3.998482769E0,3.335006225E-1,5.019275129E0
1.259360871E1,8.586535321E-1,1.649744534E0,3.075097782E0,3.593768118E0
1.260361771E1,-7.308020423E-1,-4.366604755E0,3.470460484E0,5.625424845E0
1.261362671E1,-1.564338640E0,-1.444450079E1,-4.486528809E0,1.520591001E1
1.262363571E1,-4.414905095E0,-2.603531475E1,-6.344935327E0,2.715855677E1
1.263364471E1,-1.059984540E1,-4.514116440E1,-7.487289476E-1,4.637501527E1
1.264365471E1,-1.386200701E1,-5.942090235E1,2.191011493E0,6.105570740E1
1.265366371E1,-8.770260977E0,-5.501318231E1,-2.433865070E0,5.576102048E1
1.266367271E1,-2.612962216E0,-3.856188203E1,-1.121368376E1,4.024416753E1
1.267368171E1,-1.824188173E0,-2.207700937E1,-1.241321081E1,2.539310552E1
1.268369071E1,-9.276885375E-1,-1.437021776E1,-1.105002136E1,1.815121860E1
1.269369971E1,-1.730225318E0,-1.186803280E1,-7.621538039E0,1.421026827E1
1.270370971E1,-5.066692470E0,-9.633515829E0,-2.313683738E0,1.112785389E1
1.271371871E1,-7.379130605E0,-6.763124097E0,1.683772405E0,1.015019732E1
1.272372771E1,-6.553155845E0,-3.829719261E0,2.623747405E0,8.030856218E0
1.273373604E1,-4.421763294E0,-6.945784682E-1,2.451082781E0,5.103159480E0
1.274374504E1,-2.488792206E0,2.228283253E0,2.338508823E0,4.077739131E0
1.275375504E1,-7.766694291E-1,4.851841793E0,1.971028569E0,5.294198505E0
1.276376404E1,7.485118698E-1,7.265194684E0,1.511419877E0,7.458398881E0
1.277377304E1,2.040889932E0,9.310669418E0,1.016976032E0,9.585824794E0
1.278378204E1,3.160036483E0,1.092317187E1,4.655471972E-1,1.138060844E1
1.279379104E1,4.213641301E0,1.185244295E1,-4.550303221E-3,1.257915727E1
1.280380004E1,5.289328129E0,1.219772805E1,-4.013844573E-1,1.330122818E1
1.281381004E1,5.831539267E0,1.202534395E1,-6.082530999E-1,1.337855445E1
1.282381904E1,6.101026912E0,1.159708920E1,-2.872431533E-1,1.310715514E1
1.283382804E1,6.366985177E0,1.121735464E1,3.032460324E-1,1.290191860E1
1.284383704E1,6.349878563E0,1.093090189E1,8.236132152E-1,1.266822452E1
1.285384604E1,6.169083239E0,1.072129558E1,1.205052820E0,1.242802958E1
1.286385504E1,6.056367048E0,1.056395402E1,1.677803860E0,1.229193769E1
1.287386504E1,6.018393475E0,1.044248864E1,2.569060736E0,1.232342088E1
1.288387404E1,5.955606658E0,1.007555948E1,3.087114395E0,1.210439692E1
1.289388304E1,5.695737099E0,9.493149324E0,2.560122682E0,1.136290162E1
1.290389204E1,5.324034863E0,8.974990123E0,1.637536132E0,1.056301659E1
1.291390104E1,4.773475362E0,8.520588377E0,1.021916856E0,9.819918909E0
1.292391104E1,4.386897224E0,8.354987043E0,5.570898168E-1,9.453096044E0
1.293392004E1,3.698141998E0,8.608132305E0,2.027916715E-2,9.368917080E0
1.294392904E1,2.956182372E0,8.919160323E0,-5.493448873E-1,9.412343751E0
1.295393804E1,2.533310567E0,9.165042173E0,-9.810820218E-1,9.559193606E0
1.296394704E1,2.291431428E0,9.221689999E0,-1.195457320E0,9.577021595E0
1.297395604E1,2.143580780E0,9.164073874E0,-1.224048085E0,9.490705045E0
1.298396604E1,2.051209537E0,8.959037164E0,-1.022803148E0,9.247590700E0
1.299397504E1,2.013629043E0,8.656413934E0,-5.354714911E-1,8.903647221E0
1.300398404E1,2.101899195E0,8.330331089E0,3.286252141E-1,8.597696832E0
1.301399304E1,2.206551199E0,7.915751220E0,1.367702333E0,8.330581927E0
1.302400204E1,2.285900547E0,7.284809169E0,1.912737822E0,7.870981636E0
1.303401104E1,2.590501306E0,6.474959861E0,2.055299956E0,7.270492427E0
1.304402104E1,3.118561013E0,5.363624021E0,1.806582499E0,6.462014063E0
1.305403004E1,3.348405704E0,3.799023718E0,1.619455372E0,5.316675434E0
1.306403904E1,3.212982436E0,1.434213826E0,1.330804063E0,3.761816700E0
1.307404804E1,3.000661265E0,-2.060171710E0,6.543686280E-1,3.698171684E0
1.308405704E1,2.084738202E0,-6.544075704E0,6.063248344E-1,6.894830672E0
1.309406704E1,-3.980497903E-1,-1.191458365E1,6.427730146E-1,1.193854700E1
1.310407604E1,-4.714205646E0,-2.172819723E1,-6.205598809E-1,2.224237812E1
1.311408504E1,-1.165644662E1,-3.709563423E1,-5.737862195E0,3.930498555E1
1.312409404E1,-1.776317691E1,-5.011691571E1,-1.218113599E1,5.454920502E1
1.313410304E1,-1.674801256E1,-5.023485171E1,-1.241346341E1,5.438869667E1
1.314411204E1,-1.091299888E1,-3.410156980E1,-7.997680067E0,3.668751141E1
1.315412204E1,-1.039033966E1,-1.626626982E1,-4.619377549E0,1.984664559E1
1.316413104E1,-9.238801875E0,-1.049540360E1,-4.061054993E0,1.456025839E1
1.317414004E1,-7.028128096E0,-8.858193160E0,-3.103684527E0,1.172582740E1
1.318414904E1,-6.104812399E0,-7.167699380E0,-2.137143141E0,9.654637727E0
1.319415804E1,-5.468517222E0,-5.564928453E0,-2.027484459E0,8.061253161E0
1.320416704E1,-4.340370052E0,-3.410750472E0,-1.334292512E0,5.679116787E0
1.321417704E1,-2.352959778E0,-1.102572033E0,-1.186819594E-1,2.601186309E0
1.322418604E1,-4.453265753E-1,7.478735000E-1,5.646235156E-1,1.037511564E0
1.323419504E1,1.165146596E0,2.287268211E0,6.893680143E-1,2.657892157E0
1.324420404E1,2.311913055E0,3.604318453E0,6.291897865E-1,4.328040350E0
1.325421304E1,2.953097089E0,4.767176449E0,8.797920938E-1,5.676335776E0
1.326422304E1,3.299114846E0,5.887249784E0,1.334989354E0,6.879394258E0
1.327423204E1,3.570078620E0,6.965409692E0,1.778243530E0,8.026490116E0
1.328424104E1,3.831139550E0,7.970229728E0,2.225101783E0,9.118841490E0
1.329425004E1,4.063390955E0,8.908168142E0,2.516427609E0,1.010935278E1
1.330425904E1,4.179364046E0,9.571166968E0,2.667105678E0,1.077904326E1
1.331426804E1,4.197659107E0,9.979391499E0,2.696705453E0,1.115709716E1
1.332427804E1,3.938452914E0,1.023570537E1,2.571660408E0,1.126474647E1
1.333428704E1,3.583908747E0,1.023448213E1,2.340365607E0,1.109352683E1
1.334429604E1,3.551299995E0,1.030917446E1,2.143053799E0,1.111231251E1
1.335430504E1,3.598395516E0,1.052926366E1,1.818328824E0,1.127475779E1
1.336431404E1,3.630742021E0,1.090209967E1,1.326824448E0,1.156713136E1
1.337432304E1,3.565777993E0,1.135915664E1,8.639670432E-1,1.193698669E1
1.338433304E1,3.541548008E0,1.154132547E1,7.173188746E-1,1.209377122E1
1.339434204E1,3.672660710E0,1.156122004E1,7.395628524E-1,1.215307363E1
1.340435104E1,3.850176914E0,1.155446767E1,8.857012899E-1,1.221122648E1
1.341436004E1,4.010828580E0,1.155548743E1,1.028283159E0,1.227490944E1
1.342436904E1,4.261950704E0,1.120502637E1,1.087481539E0,1.203741899E1
1.343437904E1,4.205657513E0,9.788099254E0,1.277312711E0,1.072967706E1
1.344438804E1,3.729097450E0,9.181412038E0,1.730359511E0,1.005975342E1
1.345439704E1,3.394075967E0,9.168789069E0,2.189302790E0,1.001895660E1
1.346440604E1,3.192528291E0,8.937165070E0,2.369515146E0,9.781603059E0
1.347441504E1,3.087242741E0,8.655650287E0,2.223266927E0,9.454854069E0
1.348442404E1,3.018243257E0,8.339846263E0,1.759504373E0,9.042050856E0
1.349443404E1,3.022756431E0,8.090460176E0,1.200353851E0,8.719716261E0
1.350444304E1,3.091071498E0,7.873648928E0,5.542328672E-1,8.476806269E0
1.351445204E1,3.159768096E0,7.662542809E0,-8.009749889E-2,8.288854705E0
1.352446104E1,3.342936219E0,7.419690401E0,-1.132919960E-1,8.138787581E0
1.353447004E1,3.321851452E0,7.066499280E0,2.110413618E-1,7.811187336E0
1.354447904E1,2.845360386E0,6.362598011E0,7.124658318E-1,7.006164196E0
1.355448904E1,1.806853517E0,5.556234813E0,3.130965296E0,6.628680760E0
1.356449804E1,4.900834297E-1,1.575171484E0,-1.167396751E0,2.020931010E0
1.357450704E1,-2.537166806E0,-8.413547493E0,-8.837330879E0,1.246288144E1
1.358451604E1,-7.569551615E0,-2.502228464E1,-1.730182633E0,2.619935824E1
1.359452504E1,-1.563987983E1,-4.933306137E1,3.226913427E0,5.185334855E1
1.360453504E1,-1.805038396E1,-6.803883283E1,3.429294916E0,7.047594765E1
1.361454404E1,-1.000932340E1,-6.393106092E1,-2.498564365E0,6.475808775E1
1.362455304E1,-2.275104686E0,-4.368796759E1,-7.643315409E0,4.440985120E1
1.363456204E1,-1.132943933E0,-2.410625516E1,-9.207916882E0,2.582984385E1
1.364457104E1,-2.420757513E-1,-1.427906551E1,-9.849859300E0,1.734848814E1
1.365458004E1,6.422898884E-1,-8.355430847E0,-7.011529605E0,1.092644994E1
1.366459004E1,-9.098106757E-1,-5.166959939E0,-3.211771477E0,6.151480025E0
1.367459904E1,-2.741510036E0,-3.122130738E0,-1.458217231E0,4.403404945E0
1.368460804E1,-3.258358583E0,-1.278759751E0,-9.879701149E-1,3.637060916E0
1.369461704E1,-2.998642513E0,3.473585236E-1,-2.648893575E-1,3.030293920E0
1.370462604E1,-1.712381224E0,2.157523758E0,6.670854449E-1,2.834106775E0
1.371463604E1,3.141428304E-1,3.846682618E0,4.736641924E-1,3.888445789E0
1.372464504E1,1.776342308E0,5.548045787E0,-3.016110778E-2,5.825556947E0
1.373465379E1,2.786347947E0,7.464808686E0,-3.961149466E-1,7.977719640E0
1.374466279E1,3.583904946E0,8.953037921E0,-8.030332088E-1,9.677092798E0
1.375467179E1,4.006619754E0,9.977101729E0,-8.800188196E-1,1.078749247E1
1.376468079E1,4.290633928E0,1.066119555E1,-8.067555463E-1,1.152048110E1
1.377469079E1,4.194638435E0,1.095283830E1,-6.370611620E-1,1.174587184E1
1.378469979E1,3.882960791E0,1.096835915E1,-5.572302961E-1,1.164872493E1
1.379470879E1,4.071945432E0,1.099994815E1,-5.916961241E-1,1.174434771E1
1.380471779E1,4.469391497E0,1.125807933E1,-6.214701462E-1,1.212872770E1
1.381472679E1,5.128403399E0,1.162719534E1,-5.201507628E-1,1.271859858E1
1.382473679E1,5.645087932E0,1.192609448E1,-1.843066128E-1,1.319593560E1
1.383474579E1,5.796492811E0,1.213495819E1,4.473775228E-1,1.345573060E1
1.384475479E1,5.929053283E0,1.218993255E1,1.363979995E0,1.362382361E1
1.385476379E1,6.131515464E0,1.207323382E1,2.243768435E0,1.372563126E1
1.386477279E1,5.599436381E0,1.149253397E1,2.050782251E0,1.294749909E1
1.387478179E1,4.192932510E0,1.029544052E1,1.338053441E0,1.119674799E1
1.388479179E1,3.456020200E0,9.348106216E0,8.833891547E-1,1.000557554E1
1.389480079E1,3.350851595E0,8.764476326E0,7.724416729E-1,9.414930580E0
1.390480979E1,3.096598286E0,8.597498558E0,8.663654248E-1,9.179133480E0
1.391481879E1,2.707246229E0,8.584913011E0,8.747982793E-1,9.044069083E0
1.392482779E1,2.290800221E0,8.592955856E0,7.853336871E-1,8.927676350E0
1.393483679E1,1.937887866E0,8.648993232E0,6.618276286E-1,8.888110549E0
1.394484679E1,1.701850827E0,8.717824316E0,4.822103731E-1,8.895464231E0
1.395485579E1,1.466352755E0,8.716448466E0,3.403884964E-1,8.845480687E0
1.396486479E1,1.455882584E0,8.699351792E0,3.059542434E-1,8.825640130E0
1.397487379E1,2.022648666E0,8.666606215E0,4.892226465E-1,8.912940576E0
1.398488279E1,2.536063728E0,8.485119166E0,3.257413673E-1,8.861996047E0
1.399489279E1,3.388294240E0,7.926032964E0,-1.127980232E0,8.693381149E0
1.400490179E1,3.414756984E0,7.425901313E0,1.467834731E0,8.304162473E0
1.401491079E1,2.421605067E0,6.581774458E0,5.808995912E0,9.106500954E0
1.402491979E1,1.668746084E0,3.250596405E0,2.377850937E0,4.359502903E0
1.403492879E1,9.155492062E-1,1.578182800E0,-2.927814313E0,3.449780856E0
1.404493779E1,-1.279851572E0,2.968208048E0,3.825399338E0,5.008189210E0
1.405494779E1,-6.448663763E0,-9.732357747E0,4.271789814E0,1.243190411E1
1.406495679E1,-1.471525728E1,-3.113402131E1,3.407260269E0,3.460455898E1
1.407496579E1,-1.785584358E1,-4.803598054E1,7.527690228E0,5.179722673E1
1.408497479E1,-8.071455556E0,-5.462471201E1,6.619652721E0,5.561319411E1
1.409498379E1,2.481266839E0,-5.406259812E1,1.851177020E0,5.415115934E1
1.410499379E1,7.221408395E0,-4.861914441E1,-5.193448995E0,4.942612522E1
1.411500279E1,3.454432681E0,-3.167853976E1,-1.185638164E1,3.400054076E1
1.412501179E1,-3.704850801E0,-1.763735652E1,-1.042148778E1,2.081849351E1
1.413502079E1,-4.872439780E0,-1.064922630E1,-6.320069457E0,1.330751548E1
1.414502979E1,-4.133402007E0,-6.789435398E0,-3.217863107E0,8.575318545E0
1.415503879E1,-4.161563367E0,-5.212122663E0,-2.337912115E0,7.067578466E0
1.416504879E1,-4.669051107E0,-4.033501158E0,-3.111662468E0,6.910254203E0
1.417505779E1,-4.265000612E0,-2.482241278E0,-3.582115406E0,6.097811309E0
1.418506679E1,-2.825153579E0,-3.374597722E-1,-2.842867134E0,4.022097137E0
1.419507579E1,-1.259149651E0,2.040455484E0,-1.935852889E0,3.081629899E0
1.420508479E1,-1.323575735E-1,4.391786374E0,-1.418691223E0,4.617140984E0
1.421509379E1,7.744347695E-1,6.513705851E0,-1.006208750E0,6.636306893E0
1.422510379E1,1.913422677E0,8.168815205E0,-6.496595728E-1,8.415033319E0
1.423511279E1,3.385789585E0,9.386456349E0,-5.666396356E-1,9.994509212E0
1.424512179E1,4.762917630E0,1.016691404E1,-7.978771341E-1,1.125558232E1
1.425513079E1,5.320331236E0,1.045522037E1,-6.202375531E-1,1.174743598E1
1.426513979E1,5.376237634E0,1.072471269E1,-1.245223045E-2,1.199681409E1
1.427514979E1,4.977344676E0,1.082428843E1,4.633754683E-1,1.192283091E1
1.428515879E1,4.547462059E0,1.067605216E1,8.373715675E-1,1.163437545E1
1.429516779E1,4.253310566E0,1.059476300E1,1.216581117E0,1.148127708E1
1.430517679E1,3.981788968E0,1.061252801E1,1.707270026E0,1.146277301E1
1.431518579E1,3.812191940E0,1.072690656E1,2.384261824E0,1.163116659E1
1.432519479E1,4.064527362E0,1.080797938E1,2.723500904E0,1.186382140E1
1.433520479E1,4.434280721E0,1.080903889E1,2.266063868E0,1.190097529E1
1.434521379E1,4.662063977E0,1.073325781E1,1.402251191E0,1.178575293E1
1.435522279E1,4.606673011E0,1.037845695E1,5.263276883E-1,1.136709399E1
1.436523179E1,4.182064290E0,9.796066670E0,-2.932035126E-2,1.065145265E1
1.437524079E1,3.975981806E0,9.575672248E0,-6.492748260E-2,1.036851705E1
1.438525079E1,3.772116001E0,9.382203085E0,2.994861265E-1,1.011653527E1
1.439525979E1,3.499718489E0,9.067732226E0,7.400692943E-1,9.747794611E0
1.440526879E1,3.237915256E0,8.837223290E0,9.551790757E-1,9.460072820E0
1.441527779E1,2.752715055E0,8.724479617E0,1.030753022E0,9.206325899E0
1.442528679E1,2.171780439E0,8.724660296E0,1.135469638E0,9.062318625E0
1.443529579E1,1.611359463E0,8.792192128E0,1.110668088E0,9.007369502E0
1.444530579E1,1.149702784E0,8.851116859E0,8.557435191E-1,8.966403020E0
1.445531479E1,7.862957002E-1,8.841065496E0,3.629189877E-1,8.883378311E0
1.446532379E1,3.512346429E-1,8.827608714E0,-4.832735431E-1,8.847801687E0
1.447533279E1,-3.491363695E-1,8.819094583E0,-2.389889038E0,9.143844655E0
1.448534179E1,-7.361715404E-1,8.753483561E0,-4.482821674E0,9.862104905E0
1.449535179E1,-1.579699130E-1,8.210256761E0,-1.656046955E-1,8.213446018E0
1.450536079E1,4.361233503E-2,6.838249124E0,4.011988960E0,7.928405169E0
1.451536979E1,-4.150075927E-1,5.549553784E0,3.556352574E0,6.604348729E0
1.452537879E1,-1.064264000E0,3.878687353E0,7.996643355E-1,4.100772670E0
1.453538779E1,-2.483428262E0,5.100385880E-1,1.139367246E0,2.779516688E0
1.454539679E1,-5.977135522E0,-1.005978837E1,8.954988845E-1,1.173573216E1
1.455540679E1,-1.019701551E1,-3.019115077E1,-2.058866758E0,3.193311201E1
1.456541579E1,-1.292952931E1,-4.429139557E1,6.382978481E0,4.657942533E1
1.457542479E1,-6.806866533E0,-4.654714378E1,1.038771777E1,4.817545751E1
1.458543379E1,4.014916368E0,-4.173440349E1,4.469940258E0,4.216468135E1
1.459544279E1,7.735261706E0,-3.360550605E1,-3.636547136E0,3.467547816E1
1.460545179E1,6.540422949E0,-2.523802117E1,-7.404891683E0,2.710290143E1
1.461546179E1,2.983271645E0,-1.900168969E1,-4.692059609E0,1.979847328E1
1.462547079E1,-2.651312130E-1,-1.582729946E1,-9.973993349E-1,1.586091133E1
1.463547979E1,-3.235507957E0,-1.354757299E1,-2.980805290E-1,1.393176578E1
1.464548879E1,-4.727579690E0,-1.095700736E1,2.354100716E-1,1.193572109E1
1.465549779E1,-5.731741329E0,-8.247638596E0,-5.075745714E-1,1.005654180E1
1.466550779E1,-5.786046760E0,-5.689391701E0,-2.564882315E0,8.510354653E0
1.467551679E1,-4.894832277E0,-2.808535207E0,-4.333951564E0,7.115503438E0
1.468552579E1,-3.406088779E0,6.098178148E-2,-4.747438588E0,5.843229646E0
1.469553479E1,-1.727292939E0,2.534006093E0,-3.867073613E0,4.935482358E0
1.470554379E1,-5.591442360E-1,4.856373385E0,-2.670383627E0,5.570274091E0
1.471555279E1,1.431825238E-1,6.846260979E0,-1.948574091E0,7.119601928E0
1.472556279E1,1.187753540E0,8.285498148E0,-1.515112978E0,8.506221568E0
1.473557183E1,2.581504780E0,9.308334040E0,-1.478063266E0,9.772099086E0
1.474558083E1,3.652998570E0,9.777818679E0,-1.779320002E0,1.058848980E1
1.475558983E1,4.019630393E0,9.693801792E0,-1.948971702E0,1.067359885E1
1.476559883E1,4.057905975E0,9.790213022E0,-1.293890591E0,1.067656428E1
1.477560883E1,4.199795972E0,1.012963687E1,-6.432451773E-1,1.098460713E1
1.478561783E1,4.180006655E0,1.038461290E1,-3.851648659E-1,1.120093713E1
1.479562683E1,4.142558162E0,1.063206005E1,-3.113513696E-1,1.141483371E1
1.480563583E1,4.201830803E0,1.077779839E1,-4.257761174E-1,1.157573348E1
1.481564483E1,4.471359962E0,1.075258987E1,-7.348570132E-1,1.166838737E1
1.482565383E1,5.018793833E0,1.045512096E1,-1.092030673E0,1.164862124E1
1.483566383E1,5.253331500E0,9.712084866E0,-1.076756576E0,1.109420971E1
1.484567283E1,4.933733802E0,9.123953789E0,-4.269695342E-1,1.038126028E1
1.485568183E1,4.439352304E0,9.032774062E0,5.066016312E-1,1.007747495E1
1.486569083E1,4.032726110E0,9.161181257E0,1.100945338E0,1.006986606E1
1.487569983E1,3.539435702E0,9.139834242E0,1.093373194E0,9.862030217E0
1.488570983E1,2.700996725E0,9.154286805E0,8.243299377E-1,9.579972341E0
1.489571883E1,2.088516819E0,9.114960186E0,6.084378719E-1,9.370944368E0
1.490572783E1,1.899171989E0,9.039256870E0,4.906129682E-1,9.249633511E0
1.491573683E1,1.862454545E0,8.997983714E0,4.906959256E-1,9.201805819E0
1.492574583E1,1.777155363E0,8.881810648E0,5.768160566E-1,9.076208368E0
1.493575483E1,1.584838832E0,8.746287392E0,6.632730603E-1,8.913427423E0
1.494576483E1,1.361069397E0,8.765876734E0,6.913186455E-1,8.897810197E0
1.495577383E1,1.271381588E0,8.952650251E0,4.226437640E-1,9.052346956E0
1.496578283E1,1.405725607E0,9.067522895E0,-1.037436390E0,9.234300742E0
1.497579183E1,1.718538342E0,8.426720100E0,-5.510247631E0,1.021400091E1
1.498580083E1,2.834781604E0,6.942403822E0,-9.856500567E0,1.238481171E1
1.499580983E1,4.362937381E0,5.512535062E0,-7.339881170E0,1.016351912E1
1.500581983E1,1.971910475E0,4.046822870E0,6.244339828E0,7.697855945E0
1.501582883E1,-8.441318259E-1,1.197422057E0,1.041921789E1,1.052171467E1
1.502583783E1,-1.475188190E0,-6.802105730E0,-4.325356157E0,8.194725647E0
1.503584683E1,-2.965457810E0,-1.092365835E1,-5.834398556E0,1.273422390E1
1.504585583E1,-4.846688057E0,-1.211577816E1,7.743516805E0,1.517381027E1
1.505586583E1,-6.229838149E0,-2.282716972E1,7.949393760E0,2.496163901E1
1.506587483E1,-4.995301475E0,-3.442067106E1,8.044881130E0,3.569952025E1
1.507588383E1,2.065799363E0,-3.988601442E1,4.442603356E0,4.018579846E1
1.508589283E1,8.498464267E0,-3.689543960E1,-4.813932247E-1,3.786461538E1
1.509590183E1,7.087652752E0,-3.291380383E1,-7.193263407E0,3.442813301E1
1.510591183E1,1.142636717E0,-2.466450521E1,-5.529724706E0,2.530259456E1
1.511592083E1,-1.526541800E0,-1.730341502E1,3.094380437E0,1.764408375E1
1.512592983E1,-2.667309161E0,-1.334797945E1,5.320138278E0,1.461461477E1
1.513593883E1,-4.031827393E0,-1.174054829E1,5.050350087E0,1.340157238E1
1.514594783E1,-4.121507016E0,-1.002676681E1,4.522983860E0,1.174649972E1
1.515595683E1,-4.145916218E0,-7.707825401E0,2.388623847E0,9.072194750E0
1.516596683E1,-4.249012570E0,-5.122533964E0,-1.182062591E0,6.759566111E0
1.517597583E1,-4.004856818E0,-2.475416408E0,-4.173054900E0,6.291339422E0
1.518598483E1,-2.881975066E0,1.383743584E-1,-5.420276524E0,6.140384788E0
1.519599383E1,-1.315492398E0,2.601202880E0,-5.012923229E0,5.798808151E0
1.520600283E1,-8.282040104E-2,4.464940889E0,-3.959571887E0,5.968313488E0
1.521601283E1,8.834401716E-1,6.202147490E0,-2.895752860E0,6.901629130E0
1.522602183E1,1.679072121E0,7.652265158E0,-2.363710030E0,8.183127174E0
1.523603083E1,2.350906528E0,8.655867219E0,-2.281775921E0,9.255122915E0
1.524603983E1,2.927540663E0,9.173031809E0,-2.145627013E0,9.865025199E0
1.525604883E1,3.074968558E0,9.354163347E0,-1.863509967E0,1.002140075E1
1.526605783E1,3.093588139E0,9.564341514E0,-1.611378028E0,1.018054298E1
1.527606783E1,3.213332392E0,9.929921715E0,-1.499597976E0,1.054408101E1
1.528607683E1,3.372805551E0,1.040284335E1,-1.743337991E0,1.107403243E1
1.529608583E1,3.446451817E0,1.082240563E1,-2.339173359E0,1.159630224E1
1.530609483E1,3.449174865E0,1.093150415E1,-2.663968647E0,1.176823348E1
1.531610383E1,3.595945825E0,1.097144999E1,-2.135928236E0,1.174162385E1
1.532611383E1,3.600559278E0,1.101585023E1,-8.678975415E-1,1.162179976E1
1.533612283E1,3.421346504E0,1.094077432E1,5.427128291E-1,1.147609219E1
1.534613183E1,3.173342699E0,1.077303759E1,1.500789639E0,1.133052568E1
1.535614083E1,2.833040303E0,1.050778099E1,1.960435753E0,1.105815930E1
1.536614983E1,2.317253171E0,1.002819704E1,2.133570639E0,1.051125691E1
1.537615883E1,2.071808546E0,9.582056238E0,2.450113167E0,1.010501098E1
1.538616883E1,2.149590987E0,9.178195485E0,2.619536240E0,9.783761234E0
1.539617783E1,2.237150994E0,8.857341805E0,2.156363086E0,9.386546233E0
1.540618683E1,2.300070105E0,8.673046923E0,1.535161911E0,9.103229510E0
1.541619583E1,2.361057441E0,8.601104536E0,9.953797797E-1,8.974651658E0
1.542620483E1,2.438683614E0,8.617023581E0,5.326287210E-1,8.971285667E0
1.543621483E1,2.502959132E0,8.649268636E0,1.797364656E-1,9.005940126E0
1.544622383E1,2.491780425E0,8.723846948E0,1.069058863E-1,9.073362339E0
1.545623283E1,2.262583751E0,8.858318875E0,2.875192881E-1,9.147227223E0
1.546624183E1,2.055714378E0,8.858491952E0,3.661538136E-1,9.101258698E0
1.547625083E1,2.378538715E0,8.640796021E0,-4.431571122E-1,8.973137161E0
1.548625983E1,2.776783072E0,8.302241650E0,-1.975555629E0,8.974439296E0
1.549626983E1,3.019086718E0,7.600760543E0,-4.057411008E0,9.129568968E0
1.550627883E1,2.502141691E0,6.451934111E0,8.373665974E-2,6.920634266E0
1.551628783E1,4.154195291E-1,5.096111566E0,8.110247154E0,9.587441545E0
1.552629683E1,-9.553267910E-1,1.029140360E0,4.950655060E0,5.145946432E0
1.553630583E1,-2.329093052E0,-6.995481337E0,-3.245550842E0,8.055745394E0
1.554631583E1,-5.004128432E0,-1.497708741E1,-3.113788515E-2,1.579099168E1
1.555632483E1,-1.102315691E1,-3.097354799E1,5.627714685E0,3.335478730E1
1.556633383E1,-1.575971851E1,-5.306311250E1,6.052406144E0,5.568387788E1
1.557634283E1,-1.155161423E1,-5.959206204E1,3.048189772E0,6.077783404E1
1.558635183E1,-8.978414252E-1,-5.045759789E1,-1.180923481E0,5.047940059E1
1.559636083E1,3.412506683E0,-3.671056000E1,-4.050282083E0,3.709063497E1
1.560637083E1,3.144449560E0,-2.451098072E1,-8.006774826E0,2.597660836E1
1.561637983E1,2.245723451E0,-1.734613478E1,-1.151292788E1,2.093989432E1
1.562638883E1,1.049143977E-1,-1.320670371E1,-1.056416101E1,1.691240751E1
1.563639783E1,-2.329978905E0,-1.081917914E1,-6.831195627E0,1.300571692E1
1.564640683E1,-4.433004566E0,-7.902061134E0,-2.973146607E0,9.535916338E0
1.565641583E1,-5.020508822E0,-4.435894845E0,-4.700284302E-1,6.715921279E0
1.566642583E1,-3.813182166E0,-1.278715897E0,-2.104096981E-1,4.027374432E0
1.567643483E1,-1.944447126E0,1.417539321E0,-8.210391247E-1,2.542517964E0
1.568644383E1,3.010485756E-1,3.568491393E0,-1.022828876E0,3.724371085E0
1.569645283E1,2.530961740E0,5.605530934E0,-8.163905883E-1,6.204372488E0
1.570646183E1,4.235018722E0,7.413747291E0,-1.689447530E-1,8.539764329E0
1.571647183E1,5.283931734E0,8.893339604E0,5.253360371E-1,1.035796321E1
1.572648083E1,5.712608070E0,1.003134284E1,9.755272400E-1,1.158505000E1
1.573648996E1,5.729591893E0,1.073480264E1,1.253466450E0,1.223255448E1
1.574649896E1,4.971286376E0,1.093276832E1,1.663967886E0,1.212468146E1
1.575650796E1,4.078975539E0,1.090824392E1,1.878605139E0,1.179648186E1
1.576651796E1,3.956059757E0,1.083932630E1,1.992073867E0,1.170938776E1
1.577652696E1,3.924550574E0,1.080296130E1,1.995699141E0,1.166571408E1
1.578653596E1,3.924326041E0,1.082152972E1,1.944402688E0,1.167418272E1
1.579654496E1,3.805471735E0,1.083742713E1,1.893144826E0,1.164110988E1
1.580655396E1,3.678590956E0,1.082924336E1,1.701663716E0,1.156288038E1
1.581656296E1,3.487380864E0,1.090379302E1,1.403176221E0,1.153357842E1
1.582657296E1,3.323224670E0,1.110399584E1,1.023341092E0,1.163571110E1
1.583658196E1,3.130551021E0,1.120443697E1,8.108836806E-1,1.166178759E1
1.584659096E1,2.800539724E0,1.120161160E1,6.869133532E-1,1.156680488E1
1.585659996E1,2.482224321E0,1.118520665E1,5.690907884E-1,1.147144933E1
1.586660896E1,2.136134935E0,1.109230843E1,5.090116708E-1,1.130758469E1
1.587661896E1,1.671260095E0,1.086741282E1,4.714025990E-1,1.100527110E1
1.588662796E1,1.336611810E0,1.027951504E1,4.667539895E-1,1.037655145E1
1.589663696E1,1.335681664E0,9.574620334E0,5.914772920E-1,9.685414056E0
1.590664596E1,1.374841052E0,9.303402498E0,1.096267565E0,9.468119588E0
1.591665496E1,1.340415716E0,9.224369193E0,1.731597805E0,9.480724247E0
1.592666396E1,1.200888141E0,9.166899834E0,2.220375040E0,9.508114966E0
1.593667396E1,1.089813116E0,9.147705764E0,2.550486470E0,9.558932712E0
1.594668296E1,1.038272396E0,9.168037702E0,2.651888884E0,9.600179140E0
1.595669196E1,1.089163637E0,9.276800591E0,2.608485880E0,9.697912415E0
1.596670096E1,1.400723606E0,9.533329636E0,2.556755855E0,9.969122382E0
1.597670996E1,1.719018398E0,9.641704854E0,2.470371430E0,1.010050651E1
1.598671996E1,1.828004504E0,9.591967853E0,2.381068075E0,1.005071803E1
1.599672896E1,1.833243902E0,9.062530543E0,1.450329337E0,9.359150508E0
1.600673796E1,3.068846523E0,7.119987854E0,-6.745735062E0,1.027701258E1
1.601674696E1,3.609731513E0,5.294751422E0,-6.376866971E0,9.040408541E0
1.602675596E1,2.033518640E0,4.867728678E0,5.745608586E0,7.800128112E0
1.603676496E1,2.423410687E-1,1.964246383E0,3.877281098E0,4.353194432E0
1.604677496E1,-2.807186474E-1,-1.621142879E0,-3.592580752E0,3.951397684E0
1.605678396E1,-2.881933551E0,-7.272665672E0,-1.606043175E0,7.986024145E0
1.606679296E1,-1.123591838E1,-4.460468471E1,4.145525039E0,4.618451188E1
1.607680196E1,-1.738574966E1,-6.968764473E1,4.227843311E0,7.194794493E1
1.608681096E1,-8.056981359E0,-6.846831784E1,2.651906426E0,6.899172489E1
1.609682096E1,8.914325114E-1,-6.374032943E1,-3.274458307E0,6.383060649E1
1.610682996E1,1.366528650E0,-3.871896163E1,-8.068129660E0,3.957423539E1
1.611683896E1,2.507538964E-1,-1.852891190E1,-8.247260281E0,2.028301644E1
1.612684796E1,-2.576170658E-1,-9.073068395E0,-5.584059373E0,1.065685956E1
1.613685696E1,-1.621883282E0,-4.150056632E0,-3.460402104E0,5.641618398E0
1.614686596E1,-2.804062087E0,-1.734748431E0,-1.481706666E0,3.614909536E0
1.615687596E1,-3.069647300E0,5.433285409E-1,2.299580546E-1,3.125831274E0
1.616688496E1,-2.603497912E0,2.932311407E0,6.782020982E-1,3.979523797E0
1.617689396E1,-1.572393765E0,4.988620446E0,2.011406005E-1,5.234425819E0
1.618690296E1,-2.670424850E-1,6.580168812E0,-7.655443704E-1,6.629931483E0
1.619691196E1,1.262247652E0,7.742819817E0,-9.912983501E-1,7.907414260E0
1.620692196E1,2.327055882E0,8.730992830E0,-8.068350685E-1,9.071736753E0
1.621693096E1,2.899368778E0,9.634823851E0,-6.188365602E-1,1.008063136E1
1.622693996E1,3.362894228E0,1.018856862E1,-2.100413783E-1,1.073126766E1
1.623694896E1,3.519982308E0,1.063674952E1,1.788020074E-1,1.120547571E1
1.624695796E1,3.047723749E0,1.079454131E1,5.135306183E-1,1.122828820E1
1.625696696E1,2.621805252E0,1.071442159E1,8.070116544E-1,1.106001630E1
1.626697696E1,2.756016978E0,1.070047247E1,9.879502344E-1,1.109377241E1
1.627698596E1,3.044976143E0,1.085365783E1,1.329742209E0,1.135085822E1
1.628699496E1,3.435025188E0,1.115247744E1,1.646864926E0,1.178513111E1
1.629700396E1,3.984606156E0,1.148743168E1,2.002324036E0,1.232264073E1
1.630701296E1,4.422230487E0,1.193441273E1,2.207254912E0,1.291736443E1
1.631702296E1,4.808820904E0,1.238084063E1,1.959515401E0,1.342570943E1
1.632703196E1,5.056493171E0,1.273528247E1,1.773216094E0,1.381665075E1
1.633704096E1,4.903496681E0,1.275380879E1,1.471086953E0,1.374292600E1
1.634704996E1,4.359131429E0,1.249385093E1,1.033395818E0,1.327276327E1
1.635705896E1,3.486402918E0,1.215683380E1,8.595697908E-1,1.267605907E1
1.636706796E1,2.412884529E0,1.154812227E1,9.994492225E-1,1.183976514E1
1.637707796E1,1.598061287E0,1.043776643E1,1.125787965E0,1.061923568E1
1.638708696E1,1.477504418E0,9.877642930E0,1.165346571E0,1.005529123E1
1.639709596E1,1.516321013E0,9.614097810E0,1.241533452E0,9.811804698E0
1.640710496E1,1.544854256E0,9.391065710E0,1.358445021E0,9.613743428E0
1.641711396E1,1.505401338E0,9.216846750E0,1.412849708E0,9.445244385E0
1.642712396E1,1.382686115E0,9.071076833E0,1.356838206E0,9.275627511E0
1.643713296E1,1.251567274E0,8.901524536E0,1.095225592E0,9.055555135E0
1.644714196E1,1.286158671E0,8.645538113E0,5.275160618E-1,8.756586468E0
1.645715096E1,1.526364044E0,8.354219888E0,-4.330785589E-1,8.503548329E0
1.646715996E1,2.088133388E0,7.263748668E0,-6.343969367E0,9.867537336E0
1.647716896E1,3.969606294E0,5.442390693E0,-1.225945243E1,1.398826524E1
1.648717896E1,2.520594335E0,6.135428420E0,7.766705693E0,1.021364749E1
1.649718796E1,-8.932872482E-1,4.541600225E0,1.018874404E1,1.119082659E1
1.650719696E1,-1.940441053E0,1.714967301E0,8.820290923E-1,2.735763082E0
1.651720596E1,-1.409422216E0,2.796552508E0,-6.593940175E-1,3.200308951E0
1.652721496E1,-2.060729388E0,2.311220160E0,2.947884296E0,4.275320580E0
1.653722496E1,-6.231790534E0,-1.930968242E1,6.914931849E-2,2.029048619E1
1.654723396E1,-1.272084452E1,-5.491997769E1,6.893793579E0,5.679391011E1
1.655724296E1,-1.039886841E1,-6.938349597E1,1.052372050E1,7.094332012E1
1.656725196E1,4.640480442E0,-6.622680409E1,5.937056952E0,6.665412428E1
1.657726096E1,9.229165664E0,-5.022759181E1,-2.604811782E0,5.113485624E1
1.658726996E1,2.621495642E0,-2.374356173E1,-8.790716876E0,2.545399116E1
1.659727996E1,1.687952287E-2,-1.112929323E1,-7.435059807E0,1.338437773E1
1.660728896E1,-7.914448314E-1,-6.309942080E0,-1.990278772E0,6.663554874E0
1.661729796E1,-2.224164475E0,-3.861186637E0,1.355356522E0,4.657538100E0
1.662730696E1,-3.693639058E0,-2.738311901E0,7.818838298E-1,4.663975116E0
1.663731596E1,-4.217103437E0,-1.131671872E0,-1.632702824E0,4.661583544E0
1.664732596E1,-3.883909794E0,8.964629441E-1,-2.959027920E0,4.964297264E0
1.665733496E1,-2.624023686E0,2.597127956E0,-2.793034823E0,4.629429494E0
1.666734396E1,-9.690295216E-1,3.990857999E0,-1.364116820E0,4.327445030E0
1.667735296E1,3.817307961E-1,5.157086331E0,-5.406920314E-2,5.171477671E0
1.668736196E1,1.049130383E0,6.429014779E0,3.778564310E-1,6.525004297E0
1.669737096E1,1.571486861E0,7.571106389E0,2.612828314E-1,7.736891600E0
1.670738096E1,1.914930820E0,8.559663565E0,-7.971041322E-2,8.771610692E0
