"Time (s)","Linear Acceleration x (m/s^2)","Linear Acceleration y (m/s^2)","Linear Acceleration z (m/s^2)","Absolute acceleration (m/s^2)"
3.295250004E-3,-6.292717937E-1,-9.177117258E-2,-1.748778241E0,1.860814411E0
1.330525000E-2,-1.410869841E0,-2.005413705E-1,-3.190566550E0,3.494350506E0
2.331425001E-2,-1.423940122E0,-1.298359618E-1,-2.872596132E0,3.208780358E0
3.332425001E-2,-5.940372030E-1,2.407553038E-1,-1.183403943E0,1.345841078E0
4.333325001E-2,-3.008310592E-1,4.165509653E-1,3.001579862E0,3.045241485E0
5.334325001E-2,2.281846672E-1,5.509819615E-1,5.801409150E0,5.831980580E0
6.335325001E-2,4.686540422E-1,7.180676106E-1,2.820167073E0,2.947643130E0
7.336225001E-2,3.984457929E-1,9.480111203E-1,-4.014838600E-1,1.103935426E0
8.337225001E-2,-1.557095987E-1,1.105940907E0,-1.781754198E0,2.102854914E0
9.338125000E-2,-9.102031700E-1,9.972955468E-1,-1.465880592E0,1.992956128E0
1.033912500E-1,-9.035518160E-1,8.517630270E-1,-5.393407398E-1,1.353807435E0
1.134012500E-1,-6.111465946E-1,7.456778705E-1,1.847012633E-1,9.816568664E-1
1.234102500E-1,-3.244478171E-1,5.832053822E-1,1.979604095E-1,6.961201244E-1
1.334202500E-1,-2.140064849E-1,4.852691978E-1,-1.649248105E-1,5.554144066E-1
1.434292500E-1,-2.696101436E-1,5.690849411E-1,-2.742022544E-1,6.868290734E-1
1.534395417E-1,-6.687103862E-1,5.808814064E-1,-1.348765540E-1,8.959846392E-1
1.634495417E-1,-7.138621469E-1,5.103324106E-1,-2.775322437E-2,8.779570465E-1
1.734585417E-1,-4.279837337E-1,4.027480280E-1,9.473307967E-2,5.952733883E-1
1.834685417E-1,-2.890154444E-1,3.085137159E-1,3.489501357E-1,5.481576755E-1
1.934775417E-1,-3.027086002E-1,3.458247989E-1,5.063489950E-1,6.838249724E-1
2.034875417E-1,-2.268158340E-1,4.802487785E-1,3.982105887E-1,6.638192410E-1
2.134975417E-1,-1.484249912E-1,6.094456396E-1,1.385755026E-1,6.423839471E-1
2.235065417E-1,4.640438050E-2,7.819624749E-1,-2.060886240E-1,8.099945676E-1
2.335165417E-1,9.447273239E-2,9.530847493E-1,-5.727628398E-1,1.115953810E0
2.435255417E-1,-1.039731422E-1,1.022766311E0,-9.947832906E-1,1.430543650E0
2.535355417E-1,-2.317638941E-1,1.000620274E0,-1.484167759E0,1.804912566E0
2.635455417E-1,-2.404261056E-1,9.962187821E-1,-1.546100882E0,1.854908222E0
2.735545417E-1,-1.171090584E-1,9.981735063E-1,-1.081147251E0,1.476124743E0
2.835645417E-1,9.985882200E-2,8.257589972E-1,-6.471376687E-1,1.053867576E0
2.935735417E-1,2.029908422E-1,6.592238635E-1,-5.472257102E-1,8.804756454E-1
3.035835417E-1,2.125819570E-1,6.469622523E-1,-7.553795707E-1,1.017029764E0
3.135935417E-1,2.601230362E-1,8.055083352E-1,-9.994774354E-1,1.309756777E0
3.236025417E-1,5.217710263E-1,1.127166300E0,-8.501822323E-1,1.505177298E0
3.336125417E-1,5.979703327E-1,1.472294987E0,-3.983479983E-1,1.638261938E0
3.436215417E-1,6.516622442E-1,1.580283120E0,-6.902404189E-2,1.710766711E0
3.536315417E-1,7.711923422E-1,1.474593674E0,1.967938900E-1,1.675676570E0
3.636415417E-1,9.428418893E-1,1.274598287E0,2.563226384E-1,1.606005267E0
3.736505417E-1,1.074701061E0,1.033198620E0,-2.959100425E-2,1.491092682E0
3.836605417E-1,1.037836339E0,9.039098118E-1,-4.332669854E-1,1.442871268E0
3.936695417E-1,8.611174026E-1,8.451916337E-1,-7.469741982E-1,1.419099197E0
4.036795417E-1,6.899781713E-1,7.962359668E-1,-9.367935294E-1,1.409838185E0
4.136895417E-1,4.982935052E-1,7.362235075E-1,-9.461800647E-1,1.298298188E0
4.236985417E-1,2.476669137E-1,6.085597864E-1,-7.669892174E-1,1.009928895E0
4.337085417E-1,5.469993498E-2,2.846873353E-1,-5.027085185E-1,5.803057956E-1
4.437175417E-1,-5.778192926E-2,-6.065375268E-2,-2.165381831E-1,2.321775480E-1
4.537275417E-1,-7.403274855E-2,-2.130267839E-1,2.275011277E-1,3.203404777E-1
4.637375417E-1,1.220058091E-3,-2.030751152E-1,6.222940189E-1,6.545921149E-1
4.737465417E-1,8.669915155E-2,-1.182725081E-1,7.445926273E-1,7.588961126E-1
4.837565417E-1,1.593724773E-1,-6.276182011E-2,8.236914217E-1,8.413121839E-1
4.937655417E-1,1.851748147E-1,-1.524208322E-2,1.017028438E0,1.033861150E0
5.037755417E-1,1.499253685E-1,7.166464448E-2,1.179072910E0,1.190725142E0
5.137855417E-1,2.810933991E-1,1.352661248E-1,1.256014082E0,1.294172244E0
5.237945417E-1,5.900161459E-1,1.206328829E-1,1.175175741E0,1.320495879E0
5.338045417E-1,7.868229729E-1,1.500481783E-1,1.059888529E0,1.328521185E0
5.438135417E-1,8.427494710E-1,3.574417546E-1,9.167264700E-1,1.295522559E0
5.538235417E-1,9.322952664E-1,5.604224373E-1,9.512080854E-1,1.445006780E0
5.638335417E-1,1.018174200E0,6.160649800E-1,1.135029343E0,1.644538345E0
5.738425417E-1,1.089337445E0,6.713154669E-1,1.264153406E0,1.798722980E0
5.838525417E-1,1.208883916E0,7.079761934E-1,1.266377102E0,1.888475993E0
5.938615417E-1,1.226658720E0,6.743805774E-1,1.263562253E0,1.885754582E0
6.038715417E-1,1.067713565E0,6.203486502E-1,1.356686178E0,1.834514130E0
6.138815417E-1,7.456239299E-1,5.004590946E-1,1.485746507E0,1.736046380E0
6.238905417E-1,4.130272870E-1,2.690097807E-1,1.606012039E0,1.679950139E0
6.339005417E-1,1.726035568E-1,-1.870217308E-2,1.883837228E0,1.891820409E0
6.439095417E-1,7.860751871E-2,-2.463132285E-1,2.043968491E0,2.060256426E0
6.539195417E-1,1.153100894E-1,-4.146257696E-1,1.870155328E0,1.919034105E0
6.639295417E-1,2.247376971E-1,-4.545914885E-1,1.513289816E0,1.595997031E0
6.739385417E-1,2.591635812E-1,-3.546576029E-1,1.092711289E0,1.177695096E0
6.839485417E-1,2.702571746E-1,-2.393003704E-1,5.491763413E-1,6.571896693E-1
6.939575417E-1,3.721091297E-1,-1.202247472E-1,-3.936871827E-2,3.930255592E-1
7.039675417E-1,5.321280897E-1,3.392554522E-2,-6.667691106E-1,8.537518921E-1
7.139775417E-1,5.959586712E-1,1.545831326E-1,-1.170350034E0,1.322415171E0
7.239865417E-1,5.198275214E-1,1.347091775E-1,-1.489988077E0,1.583802919E0
7.339965417E-1,2.820410683E-1,4.188287482E-2,-1.588468637E0,1.613856856E0
7.440055417E-1,8.265183678E-2,-7.176112354E-2,-1.533477913E0,1.537379425E0
7.540155417E-1,5.522168021E-2,-1.481767769E-1,-1.441046298E0,1.449696597E0
7.640255417E-1,1.886687636E-1,-1.569661653E-1,-1.313163013E0,1.335900962E0
7.740345417E-1,4.368867043E-1,-8.666845366E-2,-1.197363001E0,1.277520868E0
7.840445417E-1,6.874078084E-1,3.939064533E-2,-1.085168965E0,1.285174230E0
7.940535417E-1,8.247901136E-1,1.913268895E-1,-7.428747153E-1,1.126386946E0
8.040635417E-1,9.771567129E-1,2.715072727E-1,-2.243974257E-1,1.038703829E0
8.140735417E-1,1.093512650E0,2.336703788E-1,1.946064466E-1,1.135008119E0
8.240825417E-1,1.084488203E0,1.299581686E-1,5.717226201E-1,1.232830298E0
8.340925417E-1,8.924622792E-1,-6.412115157E-2,8.266243851E-1,1.218157755E0
8.441015417E-1,5.818586954E-1,-3.330590115E-1,1.028939216E0,1.228089474E0
8.541115417E-1,2.971916060E-1,-4.427371359E-1,1.371348072E0,1.471371658E0
8.641215417E-1,5.693141520E-2,-4.110594065E-1,1.781193450E0,1.828896150E0
8.741305417E-1,-1.697593615E-1,-5.041700301E-1,1.969527588E0,2.040108963E0
8.841405417E-1,-3.380675172E-1,-7.748021208E-1,1.833080472E0,2.018611402E0
8.941495417E-1,-4.771200795E-1,-1.005807485E0,1.490326631E0,1.860205831E0
9.041595417E-1,-7.110883009E-1,-1.081924053E0,1.061665497E0,1.674317729E0
9.141695417E-1,-9.463665909E-1,-1.035437812E0,5.319235468E-1,1.500227931E0
9.241785417E-1,-1.018454354E0,-8.343742847E-1,6.270671010E-2,1.318090229E0
9.341885417E-1,-9.295902713E-1,-5.449471964E-1,-2.296464711E-1,1.101745443E0
9.441975417E-1,-6.962140075E-1,-2.995263992E-1,-4.944990277E-1,9.049636990E-1
9.542075417E-1,-4.381152043E-1,-1.411200647E-1,-7.258563942E-1,8.594924722E-1
9.642175417E-1,-1.362303672E-1,3.053766847E-2,-8.847533101E-1,8.957006653E-1
9.742265417E-1,2.302880203E-1,2.164937443E-1,-9.497076899E-1,1.000922979E0
9.842365417E-1,6.124397063E-1,3.992772670E-1,-8.632677162E-1,1.131254118E0
9.942455417E-1,9.403775802E-1,5.123710424E-1,-7.161698967E-1,1.288306407E0
1.004255542E0,1.155792221E0,5.298191339E-1,-5.991817296E-1,1.405554239E0
1.014265542E0,1.306110979E0,4.665677556E-1,-6.250240839E-1,1.521271332E0
1.024274542E0,1.316397986E0,4.222544856E-1,-7.004432255E-1,1.549781668E0
1.034284542E0,1.203074926E0,4.444594333E-1,-6.784524322E-1,1.450941477E0
1.044293542E0,1.053063658E0,5.490652442E-1,-5.972790456E-1,1.329344940E0
1.054303542E0,9.524131235E-1,6.475819109E-1,-3.850923604E-1,1.214392529E0
1.064313542E0,8.718137142E-1,6.789063223E-1,-1.450571412E-1,1.114457052E0
1.074322542E0,7.042094171E-1,6.425049198E-1,6.290083766E-2,9.553428654E-1
1.084332542E0,5.663194640E-1,5.650848609E-1,2.024025393E-1,8.252305273E-1
1.094341542E0,4.494687064E-1,4.698707016E-1,3.067127734E-1,7.189390236E-1
1.104351542E0,3.709971720E-1,3.845352669E-1,2.676410937E-1,5.976102644E-1
1.114361542E0,3.858443123E-1,3.891323479E-1,1.405138546E-1,5.657242799E-1
1.124370542E0,4.472477511E-1,5.485495198E-1,5.845227599E-2,7.101787065E-1
1.134380542E0,5.082876393E-1,7.111398295E-1,-7.100624800E-2,8.769937677E-1
1.144389542E0,6.157781741E-1,7.996156575E-1,-2.482201517E-1,1.039317662E0
1.154400000E0,7.123104420E-1,8.436336431E-1,-5.064957601E-1,1.214759995E0
1.164410000E0,6.646965650E-1,8.885608707E-1,-5.694205713E-1,1.247237640E0
1.174419000E0,5.463746479E-1,9.165656716E-1,-3.458370781E-1,1.121704583E0
1.184429000E0,5.020011150E-1,8.308320415E-1,5.151981711E-3,9.707283573E-1
1.194438000E0,5.420978117E-1,6.203416336E-1,3.379912841E-1,8.904672301E-1
1.204448000E0,6.913021271E-1,4.667285541E-1,6.323605853E-1,1.046715856E0
1.214458000E0,8.917588592E-1,4.679821971E-1,9.936910307E-1,1.414801422E0
1.224467000E0,1.070013348E0,5.766649792E-1,1.401130280E0,1.854895448E0
1.234477000E0,1.243264228E0,6.698580484E-1,1.546410785E0,2.094230661E0
1.244486000E0,1.398803527E0,7.153213196E-1,1.477073917E0,2.156405169E0
1.254496000E0,1.480268543E0,7.583574115E-1,1.359897469E0,2.148399881E0
1.264506000E0,1.514883767E0,7.935487327E-1,1.110112603E0,2.038858114E0
1.274515000E0,1.505867799E0,7.836359480E-1,7.747163129E-1,1.865987270E0
1.284525000E0,1.530721243E0,7.481813559E-1,4.114194489E-1,1.752754640E0
1.294534000E0,1.610392773E0,7.220320228E-1,6.979938269E-2,1.766229622E0
1.304544000E0,1.632064600E0,6.996703698E-1,-3.072068632E-1,1.802095875E0
1.314554000E0,1.551479151E0,6.957862106E-1,-6.111726147E-1,1.806858592E0
1.324563000E0,1.389705698E0,7.025591867E-1,-7.199302411E-1,1.715567221E0
1.334573000E0,1.269091380E0,7.079585056E-1,-7.457199705E-1,1.633369661E0
1.344582000E0,1.080794956E0,6.758675243E-1,-7.461386311E-1,1.477036731E0
1.354592000E0,8.989470606E-1,6.478282249E-1,-7.059770304E-1,1.313845803E0
1.364602000E0,7.825646650E-1,6.127531171E-1,-5.963797438E-1,1.159112866E0
1.374611000E0,6.822496871E-1,5.435890344E-1,-4.666873312E-1,9.893183203E-1
1.384621000E0,5.033587654E-1,4.440758559E-1,-4.210837269E-1,7.923918965E-1
1.394630000E0,2.408660720E-1,3.396369830E-1,-3.800216550E-1,5.637252904E-1
1.404640000E0,-2.263588741E-2,2.462967101E-1,-3.965891558E-1,4.673942782E-1
1.414650000E0,-2.906457943E-1,1.653192052E-1,-5.942729920E-1,6.818840124E-1
1.424659000E0,-5.301851696E-1,2.100822723E-1,-8.943737340E-1,1.060723928E0
1.434669000E0,-6.478489094E-1,4.073354611E-1,-1.145792313E0,1.377849923E0
1.444678000E0,-6.753983583E-1,7.349295187E-1,-8.911121571E-1,1.338045297E0
1.454688000E0,-4.911867993E-1,1.158698579E0,4.387399793E-2,1.259274314E0
1.464697000E0,9.199877545E-2,1.403409086E0,1.412135909E0,1.993025003E0
1.474707000E0,9.159292021E-1,1.233240346E0,2.890248291E0,3.273124385E0
1.484717000E0,1.637539641E0,7.477264425E-1,4.171151631E0,4.543031679E0
1.494726000E0,2.019658400E0,1.684740704E-1,5.129017357E0,5.514909121E0
1.504736000E0,2.020948003E0,-4.298548427E-1,5.735346723E0,6.096163387E0
1.514745000E0,1.731575148E0,-1.066680800E0,5.774095636E0,6.121792289E0
1.524755000E0,1.204607774E0,-1.727903535E0,5.235085849E0,5.642947311E0
1.534765000E0,5.016098998E-1,-2.257750589E0,4.148336381E0,4.749499441E0
1.544774000E0,-2.288904992E-1,-2.470809386E0,2.602308589E0,3.595733566E0
1.554784000E0,-7.117385112E-1,-2.408046251E0,8.634548271E-1,2.655336644E0
1.564793000E0,-9.117477120E-1,-2.238744214E0,-8.641377819E-1,2.567098295E0
1.574803000E0,-8.945202067E-1,-2.033425084E0,-2.377718205E0,3.254001818E0
1.584813000E0,-7.905362472E-1,-1.771397902E0,-3.633838121E0,4.119171953E0
1.594822000E0,-6.276480219E-1,-1.430837644E0,-4.621543942E0,4.878514816E0
1.604832000E0,-4.461923287E-1,-1.063940941E0,-5.212627863E0,5.338777684E0
1.614841000E0,-2.935072754E-1,-7.335571772E-1,-5.316607729E0,5.374994921E0
1.624851000E0,-2.556541920E-1,-5.567654425E-1,-5.016729766E0,5.054000828E0
1.634861000E0,-4.695745401E-1,-6.260286355E-1,-4.484800372E0,4.552564824E0
1.644870000E0,-7.545000033E-1,-9.312725884E-1,-3.752883339E0,3.939628440E0
1.654880000E0,-1.101110522E0,-1.629051238E0,-3.124100080E0,3.691375574E0
1.664889000E0,-1.338929939E0,-2.584435697E0,-2.995280072E0,4.176570838E0
1.674899000E0,-1.395852875E0,-3.545842788E0,-3.491006430E0,5.168029820E0
1.684909000E0,-1.177501251E0,-4.107975390E0,-4.190469663E0,5.985148870E0
1.694918000E0,-8.346206718E-1,-3.950911869E0,-4.879654659E0,6.333823952E0
1.704928000E0,-7.553987204E-1,-3.226887699E0,-5.348024234E0,6.291644829E0
1.714937000E0,-9.871101357E-1,-2.373061190E0,-5.137579435E0,5.744608627E0
1.724947000E0,-1.101033923E0,-1.597292086E0,-3.939146978E0,4.390956231E0
1.734957000E0,-1.028609872E0,-1.033833043E0,-1.759479815E0,2.285304848E0
1.744966000E0,-7.354940674E-1,-9.705205616E-1,1.047967225E0,1.606579282E0
1.754976000E0,-3.661108366E-1,-1.350481406E0,3.883843428E0,4.128205051E0
1.764985000E0,-2.043306586E-1,-1.755801916E0,5.814451949E0,6.077206830E0
1.774995000E0,-1.647681051E-1,-1.819974816E0,6.832513590E0,7.072672678E0
1.785005000E0,-1.785131550E-1,-1.734732644E0,6.916712326E0,7.133167157E0
1.795014000E0,-5.281202254E-1,-1.440493151E0,6.250054312E0,6.435612667E0
1.805024000E0,-1.161192124E0,-9.642105389E-1,5.229103562E0,5.442572294E0
1.815033000E0,-1.617868730E0,-4.790882523E-1,4.237066709E0,4.560675287E0
1.825043000E0,-2.045441405E0,-2.055498031E-1,3.339182891E0,3.921252815E0
1.835053000E0,-2.731987260E0,-3.301339419E-1,2.418744609E0,3.663750577E0
1.845062000E0,-3.720925089E0,-7.336038087E-1,1.388999646E0,4.038908031E0
1.855072000E0,-4.770479249E0,-7.377215642E-1,7.850600374E-1,4.890605753E0
1.865081000E0,-5.515144674E0,-3.821900949E-1,4.032333469E-1,5.543057566E0
1.875091000E0,-5.770660397E0,-1.098361453E-1,1.592804933E-1,5.773902984E0
1.885101000E0,-5.373130424E0,-2.707567826E-2,1.231844616E-1,5.374610503E0
1.895110000E0,-4.553132104E0,5.931240141E-2,2.913041908E-1,4.562826760E0
1.905120000E0,-3.780315259E0,2.692248121E-1,7.850150138E-1,3.870337715E0
1.915129000E0,-3.135168859E0,6.465096778E-1,1.600157806E0,3.578793588E0
1.925139000E0,-2.558890966E0,1.149734798E0,2.336454989E0,3.650867704E0
1.935149000E0,-2.105615101E0,1.613790590E0,2.678773797E0,3.770114597E0
1.945158000E0,-1.742564112E0,2.097983607E0,2.727416784E0,3.857054215E0
1.955168000E0,-1.498965600E0,2.579771665E0,2.823067292E0,4.107533159E0
1.965177000E0,-1.400167243E0,2.929596545E0,3.310091824E0,4.636778203E0
1.975187000E0,-1.240314600E0,3.010683977E0,4.079000682E0,5.219276280E0
1.985197000E0,-1.092038859E0,2.847583498E0,4.843107807E0,5.723370849E0
1.995206000E0,-1.197367386E0,2.520857167E0,5.512318130E0,6.178516058E0
2.005216000E0,-1.515767866E0,2.013644246E0,6.108019012E0,6.607587429E0
2.015225000E0,-1.829711307E0,1.418223592E0,6.564657319E0,6.960885528E0
2.025235000E0,-1.963669848E0,9.151440673E-1,6.661551529E0,7.004980850E0
2.035245000E0,-2.079252052E0,5.281797208E-1,6.333178915E0,6.686659710E0
2.045254000E0,-2.161434229E0,2.141655292E-1,5.279720569E0,5.709037930E0
2.055264000E0,-2.187309913E0,-3.645885140E-3,3.581259958E0,4.196398555E0
2.065273000E0,-2.143143262E0,-1.731667534E-2,1.741240595E0,2.761391265E0
2.075283000E0,-1.994492422E0,1.484858023E-1,1.736623049E-2,2.000087408E0
2.085293000E0,-1.762696076E0,4.948868443E-1,-1.323730686E0,2.259263901E0
2.095302000E0,-1.583203074E0,8.977486007E-1,-2.228563920E0,2.877321961E0
2.105312000E0,-1.496658873E0,1.214445056E0,-2.678676149E0,3.300025831E0
2.115321000E0,-1.404794291E0,1.236332062E0,-2.694878199E0,3.280904216E0
2.125331000E0,-1.372663695E0,9.716604763E-1,-2.278040135E0,2.831571394E0
2.135341000E0,-1.382573849E0,5.643716468E-1,-1.502967142E0,2.118710936E0
2.145350000E0,-1.250865316E0,1.922247295E-1,-6.505764163E-1,1.422977181E0
2.155359750E0,-1.070032059E0,-6.234622926E-2,1.162701291E-1,1.078134687E0
2.165368750E0,-9.331257903E-1,-2.099071482E-1,6.341246903E-1,1.147562144E0
2.175378750E0,-8.079183383E-1,-3.296462841E-1,8.885639405E-1,1.245369259E0
2.185387750E0,-7.164197190E-1,-3.945240654E-1,9.273537844E-1,1.236483519E0
2.195397750E0,-7.519346836E-1,-3.863850336E-1,8.181242877E-1,1.176446562E0
2.205407750E0,-7.606185298E-1,-3.570574464E-1,6.211731076E-1,1.044933777E0
2.215416750E0,-7.031094097E-1,-3.717250407E-1,4.578211981E-1,9.176832772E-1
2.225426750E0,-6.020179215E-1,-3.107225016E-1,4.777257049E-1,8.289727981E-1
2.235435750E0,-4.943769671E-1,-2.251922084E-1,6.327903557E-1,8.339926562E-1
2.245445750E0,-3.478885737E-1,-2.694190858E-1,7.812874138E-1,8.966733667E-1
2.255455750E0,-1.261057305E-1,-2.689242652E-1,9.510309148E-1,9.963346409E-1
2.265464750E0,1.108177467E-1,-8.948403418E-2,1.062327987E0,1.071834277E0
2.275474750E0,2.854387026E-1,1.107918727E-1,1.017279283E0,1.062359277E0
2.285483750E0,3.576648259E-1,2.069705303E-1,7.688778681E-1,8.728883686E-1
2.295493750E0,3.027419293E-1,2.786119321E-1,4.209960186E-1,5.886551895E-1
2.305503750E0,2.198019527E-1,3.495278406E-1,5.711618721E-2,4.168271448E-1
2.315512750E0,1.425590645E-1,3.848888773E-1,-1.703299767E-1,4.443814079E-1
2.325522750E0,1.042679881E-1,4.676142611E-1,-3.235036379E-1,5.780912681E-1
2.335531750E0,4.158642098E-2,5.311651629E-1,-5.055303848E-1,7.344568269E-1
2.345541750E0,-1.588732347E-2,5.509559414E-1,-6.670603019E-1,8.653174578E-1
2.355551750E0,-8.878456101E-2,5.940399805E-1,-7.622465408E-1,9.704565862E-1
2.365560750E0,-1.064041221E-1,6.524030864E-1,-7.425765073E-1,9.941687450E-1
2.375570750E0,-1.495371316E-1,7.356950654E-1,-6.423944074E-1,9.880683973E-1
2.385579750E0,-1.156992947E-1,7.944623601E-1,-4.400772375E-1,9.155461449E-1
2.395589750E0,7.566940248E-2,7.946292982E-1,-2.492457533E-1,8.362326384E-1
2.405599750E0,2.709226973E-1,7.091264869E-1,-5.172388494E-2,7.608776792E-1
2.415608750E0,4.422588336E-1,6.123696859E-1,2.905838138E-1,8.093382859E-1
2.425618750E0,5.183917741E-1,4.515618999E-1,5.765448189E-1,8.972413885E-1
2.435627750E0,5.230593140E-1,2.178079060E-1,8.193060100E-1,9.961393818E-1
2.445637750E0,5.280249158E-1,-1.030162454E-2,1.112777764E0,1.231742987E0
2.455647750E0,5.142862979E-1,-2.093836762E-1,1.334524062E0,1.445436402E0
2.465656750E0,3.761547451E-1,-4.382926673E-1,1.446128697E0,1.557202962E0
2.475666750E0,1.485382810E-1,-6.872704719E-1,1.394112452E0,1.561394841E0
2.485675750E0,-7.205611557E-2,-8.763517383E-1,1.145599939E0,1.444155003E0
2.495685750E0,-2.437566796E-1,-9.451199645E-1,8.174278843E-1,1.273128985E0
2.505695750E0,-3.252573641E-1,-9.257343981E-1,4.674059540E-1,1.086850889E0
2.515704750E0,-2.843549211E-1,-8.373085637E-1,1.320652127E-2,8.843742219E-1
2.525714750E0,-1.783552802E-1,-7.237807788E-1,-4.466565245E-1,8.690059106E-1
2.535723750E0,-3.000323296E-2,-5.785077292E-1,-7.343980068E-1,9.353672108E-1
2.545733750E0,1.259769456E-1,-4.079871333E-1,-8.243603432E-1,9.283822851E-1
2.555742750E0,2.918791182E-1,-2.969324282E-1,-8.128752422E-1,9.133063265E-1
2.565752750E0,4.787799579E-1,-3.109575596E-1,-7.551088446E-1,9.466330964E-1
2.575762750E0,7.199944143E-1,-4.397182184E-1,-6.322787243E-1,1.054286704E0
2.585771750E0,9.864096393E-1,-5.927851680E-1,-5.229773068E-1,1.264082076E0
2.595781750E0,1.216693165E0,-7.547274600E-1,-4.269829828E-1,1.494078399E0
2.605791750E0,1.355973988E0,-8.717163581E-1,-2.902341503E-1,1.637922686E0
2.615800750E0,1.394892909E0,-9.454802991E-1,-1.606464028E-1,1.692768883E0
2.625810750E0,1.397457644E0,-9.733231321E-1,-9.451790214E-2,1.705631678E0
2.635819750E0,1.360478683E0,-9.706961243E-1,-2.144817173E-2,1.671410553E0
2.645829750E0,1.216492751E0,-9.229509772E-1,4.849973023E-2,1.527758274E0
2.655838750E0,1.015649518E0,-8.616709878E-1,5.012116313E-2,1.332866447E0
2.665848750E0,7.991782857E-1,-8.366199079E-1,-7.432980537E-3,1.157010826E0
2.675858750E0,6.217202608E-1,-8.239954770E-1,-1.107135201E-1,1.038153222E0
2.685867750E0,4.879366976E-1,-7.704105695E-1,-2.122632837E-1,9.363067703E-1
2.695877750E0,4.316382435E-1,-6.942090704E-1,-2.990745556E-1,8.704501114E-1
2.705886750E0,4.459532507E-1,-5.628380683E-1,-4.134472632E-1,8.286130776E-1
2.715896750E0,4.943952397E-1,-3.861698560E-1,-6.530942273E-1,9.055859321E-1
2.725906750E0,6.102103092E-1,-1.989311935E-1,-9.562770367E-1,1.151692673E0
2.735915750E0,7.190117897E-1,2.359161481E-2,-1.135153304E0,1.343915005E0
2.745925750E0,8.204222435E-1,2.630900596E-1,-1.169643690E0,1.452713116E0
2.755934750E0,8.474390110E-1,4.861866260E-1,-1.174550673E0,1.527776030E0
2.765944750E0,8.868647397E-1,6.640326136E-1,-1.161165812E0,1.604921936E0
2.775954750E0,9.613364862E-1,6.986180171E-1,-1.199838127E0,1.688741100E0
2.785963750E0,9.366173820E-1,7.063103217E-1,-1.225523776E0,1.696477208E0
2.795973750E0,9.078046422E-1,7.634462433E-1,-1.183759453E0,1.675782169E0
2.805982750E0,8.887321942E-1,8.521787640E-1,-1.071235635E0,1.632053720E0
2.815992750E0,8.939673525E-1,9.534237416E-1,-9.606910998E-1,1.622073318E0
2.826002750E0,8.382717463E-1,1.013795366E0,-8.823208684E-1,1.583973068E0
2.836011750E0,8.160206788E-1,1.055955253E0,-6.388808155E-1,1.479560726E0
2.846021750E0,8.503268778E-1,1.160274258E0,-1.734740245E-1,1.448925598E0
2.856030750E0,8.868656898E-1,1.204804167E0,1.946918160E-1,1.508638040E0
2.866040750E0,9.792495775E-1,1.135533957E0,4.279536206E-1,1.559330435E0
2.876050750E0,1.075867653E0,1.067644422E0,5.990297019E-1,1.629782931E0
2.886059750E0,1.070573950E0,1.075079449E0,7.185853815E-1,1.678776147E0
2.896069750E0,1.009705312E0,1.151689668E0,7.502258348E-1,1.705500722E0
2.906078750E0,9.578691604E-1,1.234059103E0,6.434948534E-1,1.689526805E0
2.916088750E0,9.201808588E-1,1.283333589E0,4.787144691E-1,1.650104680E0
2.926098750E0,8.845925847E-1,1.292951235E0,3.697001499E-1,1.609628882E0
2.936107750E0,8.166691350E-1,1.256448238E0,2.862504423E-1,1.525631006E0
2.946117750E0,7.376628727E-1,1.176196080E0,2.112727654E-1,1.404357474E0
2.956126750E0,6.504432459E-1,1.101884255E0,2.312942165E-1,1.300277794E0
2.966136750E0,6.173596998E-1,1.083679533E0,3.697422498E-1,1.300847286E0
2.976146750E0,6.497351481E-1,1.080340335E0,5.056876749E-1,1.358311829E0
2.986155750E0,6.616498002E-1,9.734807146E-1,6.330938262E-1,1.336507745E0
2.996165750E0,6.437988355E-1,8.613739492E-1,7.546638715E-1,1.313757809E0
3.006174750E0,6.657887518E-1,7.155407363E-1,9.183549196E-1,1.341137191E0
3.016184750E0,7.362515742E-1,5.762243915E-1,1.165292777E0,1.493990691E0
3.026193750E0,8.974803597E-1,5.618668458E-1,1.439623085E0,1.787087009E0
3.036203750E0,1.059478785E0,5.656184193E-1,1.737893649E0,2.112508894E0
3.046213750E0,1.212217633E0,5.649109063E-1,2.024866807E0,2.426660567E0
3.056222750E0,1.268762328E0,5.424002954E-1,2.026236225E0,2.451446341E0
3.066232750E0,1.190237218E0,5.490235828E-1,1.747647974E0,2.184574322E0
3.076241750E0,9.803170598E-1,6.417531140E-1,1.241741613E0,1.707275851E0
3.086251750E0,7.436703021E-1,8.063161281E-1,7.927239829E-1,1.353367108E0
3.096261750E0,6.045887960E-1,9.587555252E-1,5.087311506E-1,1.242395731E0
3.106270750E0,6.141427079E-1,1.026761859E0,4.210615075E-1,1.268346946E0
3.116280750E0,7.741766149E-1,9.985309173E-1,6.860386097E-1,1.437728207E0
3.126289750E0,9.447183339E-1,9.226081842E-1,1.405533233E0,1.928528522E0
3.136299750E0,1.107727816E0,7.399196787E-1,2.487136567E0,2.821416372E0
3.146309750E0,1.324406332E0,4.368865581E-1,3.715952910E0,3.969033638E0
3.156318917E0,1.465760139E0,6.060112774E-2,4.636333889E0,4.862891857E0
3.166328917E0,1.532226463E0,-3.912088403E-1,4.968366861E0,5.213965051E0
3.176337917E0,1.510703885E0,-9.156017581E-1,4.607467940E0,4.934502369E0
3.186347917E0,1.327574061E0,-1.383846057E0,3.574035723E0,4.056009633E0
3.196357917E0,9.655675314E-1,-1.632292934E0,2.161469459E0,2.875526230E0
3.206366917E0,5.204873431E-1,-1.665254858E0,7.202641171E-1,1.887527805E0
3.216376917E0,1.701859890E-1,-1.561113608E0,-4.930150044E-1,1.645935225E0
3.226385917E0,-6.409027096E-2,-1.377734108E0,-1.429771696E0,1.986581471E0
3.236395917E0,-1.209114296E-1,-1.112044523E0,-2.062183152E0,2.346031106E0
3.246405917E0,-8.156627378E-2,-8.767309302E-1,-2.330896041E0,2.491663407E0
3.256414917E0,1.602147595E-2,-7.037050948E-1,-2.251430626E0,2.358897499E0
3.266424917E0,1.541820867E-1,-5.564444304E-1,-1.892618576E0,1.978738890E0
3.276433917E0,3.104936196E-1,-4.765375507E-1,-1.428275394E0,1.537356473E0
3.286443917E0,5.159876183E-1,-4.870455819E-1,-8.417125404E-1,1.100879931E0
3.296453917E0,7.026701376E-1,-6.089717227E-1,-3.927627379E-1,1.009383203E0
3.306462917E0,8.175062370E-1,-8.362123570E-1,-1.789464337E-1,1.183042425E0
3.316472917E0,9.077930208E-1,-9.492823049E-1,2.845664442E-2,1.313786453E0
3.326481917E0,9.956450240E-1,-8.685916060E-1,2.522675943E-1,1.345139149E0
3.336491917E0,1.084045862E0,-7.995777968E-1,4.209159118E-1,1.411258406E0
3.346501917E0,1.124682329E0,-8.653148264E-1,4.540912592E-1,1.489925824E0
3.356510917E0,1.032538689E0,-9.924186766E-1,4.395451409E-1,1.498075734E0
3.366520917E0,9.313472866E-1,-1.142357366E0,3.879955029E-1,1.524115688E0
3.376529917E0,8.241738170E-1,-1.287419477E0,2.810546064E-1,1.554253223E0
3.386539917E0,7.526109141E-1,-1.353848525E0,1.219167852E-1,1.553767266E0
3.396548917E0,6.986221102E-1,-1.351470462E0,-1.130752105E-1,1.525559329E0
3.406558917E0,6.292275741E-1,-1.281122318E0,-4.222753894E-1,1.488461702E0
3.416568917E0,5.254830215E-1,-1.167297495E0,-7.163716257E-1,1.466936997E0
3.426577917E0,4.644281133E-1,-1.004909499E0,-1.022282746E0,1.506850552E0
3.436587917E0,4.267622138E-1,-8.597234264E-1,-1.280147295E0,1.600008579E0
3.446596917E0,3.807070948E-1,-7.089860076E-1,-1.387943639E0,1.604364858E0
3.456606917E0,3.839302994E-1,-5.376529410E-1,-1.418877749E0,1.565147669E0
3.466616917E0,4.093069960E-1,-4.505504778E-1,-1.409234521E0,1.535079765E0
3.476625917E0,3.766069541E-1,-3.933275789E-1,-1.400337982E0,1.502493210E0
3.486635917E0,2.808352628E-1,-2.828184190E-1,-1.448533072E0,1.502365723E0
3.496644917E0,1.941766215E-1,-1.402530688E-1,-1.555095654E0,1.573435088E0
3.506654917E0,1.178083853E-1,-6.210356981E-2,-1.674977024E0,1.680262985E0
3.516664917E0,1.076818484E-1,-2.581984252E-2,-1.684196913E0,1.687833311E0
3.526673917E0,1.684259954E-1,3.904449016E-2,-1.653365130E0,1.662380233E0
3.536683917E0,2.260440016E-1,6.290960848E-2,-1.582633116E0,1.599931589E0
3.546692917E0,2.237611755E-1,9.108295530E-2,-1.459199563E0,1.479063398E0
3.556702917E0,1.754643802E-1,1.399802962E-1,-1.208373892E0,1.229044220E0
3.566712917E0,1.490473177E-1,2.036441955E-1,-9.201944536E-1,9.541718366E-1
3.576721917E0,8.055540897E-2,2.476789919E-1,-7.257219082E-1,7.710423756E-1
3.586731917E0,8.168377541E-3,2.849526528E-1,-5.894771057E-1,6.547885116E-1
3.596740917E0,1.054428399E-2,3.557691586E-1,-4.310625851E-1,5.590150521E-1
3.606750917E0,6.555825099E-3,4.748982838E-1,-2.738765645E-1,5.482515220E-1
3.616760917E0,1.679894093E-2,6.145847574E-1,-1.542518878E-1,6.338692873E-1
3.626769917E0,1.550407503E-2,7.670658159E-1,-1.124004418E-1,7.754122785E-1
3.636779917E0,-9.464997612E-3,8.829257628E-1,-1.504862809E-1,8.957084401E-1
3.646788917E0,-3.207775198E-2,1.011272731E0,-1.674402827E-1,1.025542670E0
3.656798917E0,-2.175142296E-2,1.119213502E0,-1.073940557E-1,1.124564569E0
3.666807917E0,4.720153872E-2,1.178570049E0,2.058629215E-2,1.179694512E0
3.676817917E0,6.047738604E-2,1.175150598E0,2.270584935E-1,1.198412283E0
3.686827917E0,1.090384389E-1,1.109084955E0,4.388616014E-1,1.197730488E0
3.696836917E0,1.630095185E-1,9.864124167E-1,5.959815484E-1,1.163948266E0
3.706846917E0,1.468281166E-1,8.482286775E-1,7.543259025E-1,1.144577631E0
3.716855917E0,7.812114000E-2,7.408240968E-1,9.688988364E-1,1.222165378E0
3.726865917E0,5.335350394E-2,6.139196366E-1,1.171563916E0,1.323746926E0
3.736875917E0,-1.394041993E-2,4.409598747E-1,1.330768980E0,1.401993589E0
3.746884917E0,-1.433265115E-1,3.292570058E-1,1.452512687E0,1.496243888E0
3.756894917E0,-3.047195673E-1,3.373685557E-1,1.399981887E0,1.471944578E0
3.766903917E0,-3.398233264E-1,4.011184090E-1,1.183122692E0,1.294664116E0
3.776913917E0,-2.298301103E-1,4.739945966E-1,1.009177381E0,1.138389979E0
3.786923917E0,-1.086673600E-1,5.520619422E-1,8.635542297E-1,1.030682730E0
3.796932917E0,3.613688909E-2,6.584958851E-1,7.336232507E-1,9.864713779E-1
3.806942917E0,2.419591724E-1,7.788596499E-1,7.343307638E-1,1.097455359E0
3.816951917E0,4.774833013E-1,8.951148686E-1,9.948686600E-1,1.420909772E0
3.826961917E0,6.793296607E-1,9.271909395E-1,1.619793341E0,1.986177810E0
3.836971917E0,9.550090680E-1,7.572240749E-1,2.374765361E0,2.669258537E0
3.846980917E0,1.193067563E0,3.280650508E-1,3.069537372E0,3.309546278E0
3.856990917E0,1.239742450E0,-2.185104489E-1,3.727042739E0,3.933898287E0
3.866999917E0,1.085909662E0,-7.763187423E-1,4.215752438E0,4.422040163E0
3.877009917E0,8.221359162E-1,-1.311335759E0,4.261682317E0,4.534031882E0
3.887018917E0,4.833611783E-1,-1.737501008E0,3.723311630E0,4.137100105E0
3.897028917E0,1.296772099E-1,-1.957565647E0,2.652356662E0,3.299071885E0
3.907038917E0,-2.278334688E-1,-1.980787279E0,1.306586065E0,2.383819096E0
3.917047917E0,-5.248521435E-1,-1.870690933E0,-1.064076304E-2,1.942953310E0
3.927057917E0,-8.081716689E-1,-1.627357007E0,-1.199408357E0,2.177157018E0
3.937066917E0,-9.488610861E-1,-1.292610928E0,-2.108291956E0,2.648787523E0
3.947076917E0,-8.529907230E-1,-9.998887870E-1,-2.707688863E0,3.009808921E0
3.957086917E0,-5.511368396E-1,-7.709264401E-1,-3.091531674E0,3.233519365E0
3.967095917E0,-1.553646860E-1,-5.514222568E-1,-3.327379117E0,3.376337732E0
3.977105917E0,3.130985907E-1,-3.126696244E-1,-3.357334988E0,3.386368444E0
3.987114917E0,7.973866258E-1,-5.715916425E-2,-3.123492554E0,3.224174055E0
3.997124917E0,1.232113295E0,2.071735749E-1,-2.646032898E0,2.926177397E0
4.007134917E0,1.562541352E0,4.654050368E-1,-1.896870672E0,2.501250821E0
4.017143917E0,1.666999813E0,6.167391640E-1,-1.057402292E0,2.068176777E0
4.027153917E0,1.636258808E0,5.014349949E-1,-2.681363529E-1,1.732246243E0
4.037162917E0,1.576449101E0,1.685158780E-1,3.749041718E-1,1.629153924E0
4.047172917E0,1.345446661E0,-2.161361870E-1,8.945818949E-1,1.630097646E0
4.057182917E0,8.663766807E-1,-5.816757506E-1,1.240647599E0,1.621160602E0
4.067191917E0,2.026922688E-1,-8.982062915E-1,1.375201387E0,1.655003792E0
4.077201917E0,-4.041825693E-1,-1.192847781E0,1.282492613E0,1.797508464E0
4.087210917E0,-8.034693380E-1,-1.402210553E0,9.425401729E-1,1.870865946E0
4.097220917E0,-1.035578364E0,-1.419254017E0,3.765028006E-1,1.796791271E0
4.107230917E0,-1.136718676E0,-1.197871416E0,-2.067803496E-1,1.664266623E0
4.117239917E0,-1.078268301E0,-8.258116221E-1,-6.930932754E-1,1.524796922E0
4.127249917E0,-8.472506576E-1,-4.155154234E-1,-1.043543222E0,1.406936104E0
4.137258917E0,-4.849454813E-1,-5.271264911E-2,-1.236244646E0,1.329003976E0
4.147268917E0,-8.985759817E-2,2.402042037E-1,-1.287598987E0,1.312891312E0
4.157280292E0,2.481208952E-1,4.772915491E-1,-1.307290070E0,1.413640169E0
4.167290292E0,4.456762388E-1,6.434752652E-1,-1.352243464E0,1.562450035E0
4.177300292E0,5.173533817E-1,7.397476244E-1,-1.389875559E0,1.657297541E0
4.187309292E0,4.924334623E-1,7.689243534E-1,-1.237786556E0,1.538132288E0
4.197319292E0,3.934620283E-1,7.040606055E-1,-1.008131315E0,1.291062528E0
4.207328292E0,2.284118316E-1,5.393012711E-1,-7.811003029E-1,9.762865917E-1
4.217338292E0,7.558911290E-2,3.032670093E-1,-5.901261467E-1,6.677824959E-1
4.227348292E0,-7.654133197E-2,1.122513378E-1,-4.477932233E-1,4.679505413E-1
4.237357292E0,-1.763562633E-1,3.367674619E-2,-3.296063769E-1,3.753345421E-1
4.247367292E0,-2.298240072E-1,6.712340444E-2,-2.720294291E-1,3.623874115E-1
4.257376292E0,-2.015334603E-1,1.557724562E-1,-1.859373647E-1,3.153624856E-1
4.267386292E0,-1.283846463E-1,2.118618724E-1,-2.318245590E-2,2.488081523E-1
4.277396292E0,-6.242984444E-2,2.603294429E-1,1.656019181E-1,3.147902470E-1
4.287405292E0,-1.643188197E-2,2.930095312E-1,4.107949662E-1,5.048535395E-1
4.297415292E0,5.594539192E-2,3.492480513E-1,6.153978127E-1,7.098017724E-1
4.307424292E0,1.793981676E-1,4.348609364E-1,7.171013582E-1,8.576258476E-1
4.317434292E0,2.659503896E-1,5.485384101E-1,6.799200833E-1,9.131896390E-1
4.327443292E0,2.973834495E-1,7.037477794E-1,5.006362653E-1,9.134191388E-1
4.337453292E0,2.906294586E-1,8.815975678E-1,2.160440934E-1,9.530764943E-1
4.347463292E0,2.142113567E-1,1.034092367E0,-2.044946730E-2,1.056244153E0
4.357472292E0,1.158622949E-1,1.146920533E0,-1.327224398E-1,1.160373227E0
4.367482292E0,5.638974376E-2,1.214724553E0,-1.512452495E-1,1.225402248E0
4.377491292E0,4.016520954E-2,1.182508442E0,-5.788801968E-2,1.184605623E0
4.387501292E0,8.240873879E-2,1.115735285E0,1.124630070E-1,1.124412893E0
4.397511292E0,1.701282660E-1,1.065536062E0,3.542921519E-1,1.135708437E0
4.407520292E0,3.194102580E-1,1.025564788E0,6.494677842E-1,1.255234819E0
4.417530292E0,5.162673345E-1,9.643137422E-1,1.086010380E0,1.541379739E0
4.427539292E0,6.783444779E-1,8.628060785E-1,1.627288302E0,1.962817561E0
4.437549292E0,7.955188058E-1,7.147846913E-1,2.040333277E0,2.303633479E0
4.447559292E0,7.457728147E-1,5.437048092E-1,2.268154247E0,2.448737573E0
4.457568292E0,5.379475676E-1,4.258059382E-1,2.291253088E0,2.391764829E0
4.467578292E0,1.282795791E-1,4.652190953E-1,2.045329138E0,2.101488934E0
4.477587292E0,-4.102087098E-1,5.948527434E-1,1.552674907E0,1.712577104E0
4.487597292E0,-8.081588781E-1,7.545378640E-1,9.760458881E-1,1.474826680E0
4.497607292E0,-1.029659885E0,9.185952401E-1,3.601908231E-1,1.426097516E0
4.507616292E0,-1.090828485E0,1.062638766E0,-2.092782801E-1,1.537174464E0
4.517626292E0,-9.949426273E-1,1.213782567E0,-4.956813347E-1,1.645867229E0
4.527635292E0,-6.826846468E-1,1.368898965E0,-2.475933301E-1,1.549595161E0
4.537645292E0,-1.059704963E-1,1.396303696E0,6.744225311E-1,1.554264941E0
4.547655292E0,5.419785285E-1,1.140735641E0,1.968042980E0,2.338420770E0
4.557664292E0,9.395396011E-1,6.590914240E-1,3.295016533E0,3.489164673E0
4.567674292E0,1.093833662E0,8.297052830E-3,4.336086382E0,4.471933143E0
4.577683292E0,9.658113603E-1,-7.465862355E-1,4.616518845E0,4.775188880E0
4.587693292E0,4.995471483E-1,-1.404449452E0,4.051982453E0,4.317474657E0
4.597702292E0,-2.429036805E-1,-1.764786455E0,2.867503792E0,3.375803820E0
4.607712292E0,-9.650980731E-1,-1.833664609E0,1.408456256E0,2.505491811E0
4.617722292E0,-1.470987550E0,-1.653409569E0,4.145734370E-2,2.213433145E0
4.627731292E0,-1.865856455E0,-1.291880903E0,-1.130350401E0,2.535363604E0
4.637741292E0,-2.003214129E0,-8.466051981E-1,-1.979258525E0,2.940590334E0
4.647750292E0,-1.869368293E0,-4.048302215E-1,-2.579033162E0,3.210893547E0
4.657760292E0,-1.516537945E0,-2.569471210E-2,-2.928098488E0,3.297621614E0
4.667770292E0,-1.057404412E0,2.876248303E-1,-3.081552231E0,3.270595708E0
4.677779292E0,-5.118713978E-1,6.099543473E-1,-2.960181575E0,3.065408879E0
4.687789292E0,8.729012232E-2,9.029282105E-1,-2.358950397E0,2.527359471E0
4.697798292E0,6.062590897E-1,1.078732058E0,-1.172764934E0,1.704872584E0
4.707808292E0,8.598016329E-1,1.025762132E0,2.715955657E-1,1.365727260E0
4.717817292E0,1.073932664E0,7.747739080E-1,1.764196179E0,2.205899846E0
4.727827292E0,1.281318200E0,3.226730409E-1,3.167446659E0,3.431998333E0
4.737837292E0,1.342709287E0,-2.945040795E-1,4.095524914E0,4.320060787E0
4.747846292E0,1.194536018E0,-9.456263334E-1,4.333178562E0,4.593208237E0
4.757856292E0,8.345050431E-1,-1.452791600E0,3.880064957E0,4.226334839E0
4.767865292E0,3.270663464E-1,-1.704319814E0,2.891062809E0,3.371931581E0
4.777875292E0,-1.572932805E-1,-1.692178070E0,1.639473315E0,2.361372598E0
4.787885292E0,-4.166072448E-1,-1.568875203E0,4.075643796E-1,1.673630700E0
4.797894292E0,-5.364237101E-1,-1.329582580E0,-6.280120111E-1,1.565228200E0
4.807904292E0,-5.275682848E-1,-9.912007016E-1,-1.371973139E0,1.772883927E0
4.817913292E0,-4.002434829E-1,-6.144710290E-1,-1.707264764E0,1.858096463E0
4.827923292E0,-2.186583104E-1,-3.314815789E-1,-1.762427981E0,1.806611160E0
4.837933292E0,-2.702473439E-2,-1.954186249E-1,-1.693041996E0,1.704496986E0
4.847942292E0,1.900474457E-1,-1.274020582E-1,-1.589159194E0,1.605545471E0
4.857952292E0,3.955139259E-1,-4.159855396E-2,-1.441235163E0,1.495098826E0
4.867961292E0,5.111891374E-1,4.522879779E-2,-1.360360569E0,1.453939770E0
4.877971292E0,4.981235705E-1,1.233119309E-1,-1.351350594E0,1.445503840E0
4.887981292E0,4.590924193E-1,1.597561643E-1,-1.309880387E0,1.397166600E0
4.897990292E0,3.544708209E-1,9.654717833E-2,-1.299981635E0,1.350897173E0
4.908000292E0,2.116411400E-1,-6.937867552E-2,-1.280565956E0,1.299790191E0
4.918009292E0,9.042105049E-2,-2.427334169E-1,-1.245573294E0,1.272221800E0
4.928019292E0,5.437176000E-2,-3.294423625E-1,-1.201503414E0,1.247036091E0
4.938028292E0,5.208180763E-2,-3.670478529E-1,-1.097592545E0,1.158510265E0
4.948038292E0,4.142913088E-2,-3.387639937E-1,-9.717762512E-1,1.029964319E0
4.958048292E0,2.971518449E-2,-2.969140095E-1,-8.908806074E-1,9.395260389E-1
4.968057292E0,5.558735959E-2,-2.614234570E-1,-8.634226674E-1,9.038422877E-1
4.978067292E0,6.358492535E-2,-2.085076171E-1,-9.474459869E-1,9.721997568E-1
4.988076292E0,7.914626654E-2,-1.184830078E-1,-1.142716092E0,1.151565206E0
4.998086292E0,8.509803772E-2,2.131310105E-4,-1.344306453E0,1.346997239E0
5.008096292E0,-1.749373633E-2,1.236414215E-1,-1.515136952E0,1.520274059E0
5.018105292E0,-7.806825925E-2,2.576353383E-1,-1.640663223E0,1.662602307E0
5.028115292E0,-1.043540883E-1,4.017990249E-1,-1.828002166E0,1.874546385E0
5.038124292E0,-2.035596301E-1,5.027994427E-1,-1.847121976E0,1.925124255E0
5.048134292E0,-2.395823523E-1,6.180316910E-1,-1.777893866E0,1.897437608E0
5.058144292E0,-2.362877752E-1,6.866081285E-1,-1.708589743E0,1.856486344E0
5.068153292E0,-1.790569095E-1,7.092535177E-1,-1.614857706E0,1.772813397E0
5.078163292E0,-1.823313137E-1,7.201825485E-1,-1.462499147E0,1.640369277E0
5.088172292E0,-2.822924620E-1,7.386363611E-1,-1.229324466E0,1.461681002E0
5.098182292E0,-3.583955817E-1,7.223901647E-1,-9.270152307E-1,1.228679039E0
5.108191292E0,-2.570564640E-1,5.041527808E-1,-6.516020179E-1,8.630372192E-1
5.118201292E0,-1.944622762E-1,-1.199547520E-1,-3.657602960E-1,4.312601460E-1
5.128211292E0,-8.728795885E-1,-1.446580395E0,-5.392886996E-1,1.773512311E0
5.138220292E0,-1.309559667E0,-6.787725672E-1,-8.190212506E-1,1.687149824E0
5.148230292E0,-9.838648579E-1,2.768805715E-1,-5.369802189E-1,1.154556480E0
5.158236542E0,-2.510849950E-1,1.606759313E-1,-1.291433591E-1,3.248667985E-1
5.168246542E0,8.878287993E-2,-3.844953597E-1,2.745887554E-1,4.807474035E-1
5.178256542E0,1.931397457E-1,-4.887311880E-1,8.533561009E-1,1.002186495E0
5.188265542E0,4.332381879E-1,-1.054415242E-1,1.572870605E0,1.634850202E0
5.198275542E0,9.300079087E-1,1.306159803E-1,2.263291703E0,2.450400901E0
5.208284542E0,1.410504682E0,1.587656459E-1,2.957671950E0,3.280633072E0
5.218294542E0,1.937511452E0,8.250128925E-2,3.864694966E0,4.323959328E0
5.228304542E0,2.151756649E0,-5.437077329E-2,4.627431504E0,5.103541435E0
5.238313542E0,2.101858119E0,-2.798338540E-1,5.205770833E0,5.621046566E0
5.248323542E0,1.632149531E0,-6.513517570E-1,5.443678250E0,5.720297553E0
5.258332542E0,8.195015994E-1,-9.661165850E-1,5.342261218E0,5.490420663E0
5.268342542E0,-1.249243006E-1,-1.127790928E0,4.888990324E0,5.018938617E0
5.278351542E0,-9.444165444E-1,-1.366313327E0,3.864964523E0,4.206742859E0
5.288361542E0,-1.501016511E0,-1.573114434E0,2.516432871E0,3.325683987E0
5.298371542E0,-1.728009515E0,-1.528548710E0,1.103305274E0,2.557295558E0
5.308380542E0,-1.804612718E0,-1.182752855E0,-1.195498323E-1,2.160977450E0
5.318390542E0,-1.793210063E0,-6.239435184E-1,-1.049967558E0,2.169640458E0
5.328399542E0,-1.628584045E0,-1.072034365E-1,-1.764841712E0,2.403839603E0
5.338409542E0,-1.319581210E0,2.747849295E-1,-2.246868628E0,2.620156476E0
5.348419542E0,-9.463446638E-1,5.172404574E-1,-2.401278391E0,2.632345689E0
5.358428542E0,-4.881596958E-1,6.408902112E-1,-2.279973809E0,2.418123388E0
5.368438542E0,8.686214268E-2,7.076776931E-1,-2.055155384E0,2.175319839E0
5.378447542E0,6.188132445E-1,7.065911342E-1,-1.770778390E0,2.004459271E0
5.388457542E0,1.116912111E0,6.368160175E-1,-1.334456234E0,1.853051738E0
5.398467542E0,1.541569144E0,6.657344458E-1,-7.773458058E-1,1.850379496E0
5.408476542E0,1.754541403E0,7.883935350E-1,-1.541080463E-1,1.929696657E0
5.418486542E0,1.771871819E0,8.035827009E-1,5.267282957E-1,2.015618416E0
5.428495542E0,1.625642896E0,6.265370509E-1,1.161841750E0,2.094072528E0
5.438505542E0,1.256266243E0,2.404857472E-1,1.540427914E0,2.002237854E0
5.448514542E0,7.078235811E-1,-3.135886605E-1,1.597522466E0,1.775226774E0
5.458524542E0,4.595122129E-2,-7.627404843E-1,1.385456818E0,1.582205788E0
5.468534542E0,-6.149010918E-1,-1.001781969E0,9.149582720E-1,1.489570108E0
5.478543542E0,-1.232127036E0,-1.093950460E0,3.738920188E-1,1.689573877E0
5.488553542E0,-1.753457621E0,-1.077131237E0,-5.644551158E-2,2.058643103E0
5.498562542E0,-2.074461428E0,-9.949414578E-1,-3.939567393E-1,2.334202355E0
5.508572542E0,-2.155117921E0,-8.193596582E-1,-6.063720506E-1,2.384024028E0
5.518582542E0,-2.011886865E0,-4.915264495E-1,-8.113847870E-1,2.224327377E0
5.528591542E0,-1.686447653E0,-1.186828364E-1,-1.072088744E0,2.001890501E0
5.538601542E0,-1.376009472E0,1.939850338E-1,-1.347465704E0,1.935638418E0
5.548610542E0,-1.304147630E0,3.871882948E-1,-1.440956835E0,1.981684238E0
5.558620542E0,-1.365466357E0,5.338259384E-1,-1.385355077E0,2.017096228E0
5.568629542E0,-1.386282299E0,6.123505363E-1,-1.046514777E0,1.841723370E0
5.578639542E0,-1.325320252E0,7.026837324E-1,-7.509286702E-1,1.677537500E0
5.588649542E0,-1.116200285E0,7.862153010E-1,-4.992551529E-1,1.453717058E0
5.598658542E0,-5.846163885E-1,7.919647220E-1,-5.263517350E-1,1.116257404E0
5.608668542E0,-1.662849460E-1,8.817158277E-1,-8.041476882E-1,1.204876337E0
5.618677542E0,-2.238680334E-1,9.390980633E-1,-8.890913594E-1,1.312442576E0
5.628687542E0,7.267628588E-2,5.088366929E-1,-6.606581855E-1,8.370578598E-1
5.638697542E0,-8.067956728E-1,2.178710559E-1,-1.584267998E-1,8.505798643E-1
5.648706542E0,-1.545040782E0,8.500157328E-1,4.180969691E-1,1.812314222E0
5.658716542E0,-1.487631796E0,9.886228104E-1,7.500510031E-1,1.937266096E0
5.668725542E0,-1.203402663E0,8.350966351E-1,8.257630903E-1,1.681502019E0
5.678735542E0,-8.190409850E-1,5.870298267E-1,7.161318898E-1,1.236235025E0
5.688745542E0,-3.839341731E-1,5.513577913E-1,5.740831411E-1,8.837263808E-1
5.698754542E0,-9.031667769E-2,8.429511999E-1,5.758443224E-1,1.024851458E0
5.708764542E0,1.289539824E-1,1.279580700E0,4.806715322E-1,1.372953393E0
5.718773542E0,3.734591056E-1,1.722345318E0,1.106451076E-1,1.765839018E0
5.728783542E0,3.442908185E-1,1.878341284E0,4.929202795E-3,1.909640396E0
5.738792542E0,3.977272432E-2,1.659739180E0,2.912164825E-1,1.685563127E0
5.748802542E0,-2.908217589E-1,1.375831863E0,7.923275417E-1,1.614085978E0
5.758812542E0,-5.558809415E-1,1.080325278E0,1.186237503E0,1.698018181E0
5.768821542E0,-5.852867717E-1,8.170195294E-1,1.329200757E0,1.666390161E0
5.778831542E0,-4.459514965E-1,6.686801999E-1,1.317865929E0,1.543624486E0
5.788840542E0,-2.399201387E-1,5.975156385E-1,1.281927772E0,1.434547115E0
5.798850542E0,9.619572412E-2,5.523960375E-1,1.279970709E0,1.397397587E0
5.808860542E0,5.227967010E-1,3.866816336E-1,1.420538358E0,1.562295844E0
5.818869542E0,8.665926623E-1,2.956222864E-1,1.725648410E0,1.953519340E0
5.828879542E0,1.085291318E0,6.230333993E-1,2.005575673E0,2.363971582E0
5.838888542E0,1.061660381E0,9.232952321E-1,2.093275722E0,2.522181615E0
5.848898542E0,8.992928503E-1,1.049148217E0,2.029175035E0,2.454993062E0
5.858907542E0,8.876371568E-1,1.159134928E0,1.806428863E0,2.322644773E0
5.868917542E0,9.728889032E-1,1.078184101E0,1.522968712E0,2.104382920E0
5.878927542E0,1.144385326E0,4.715032442E-1,1.207299759E0,1.729018737E0
5.888936542E0,9.873950413E-1,4.675696760E-2,8.665585291E-1,1.314556528E0
5.898946542E0,4.286619011E-1,1.163562293E-1,5.391220540E-1,6.985287300E-1
5.908955542E0,-1.246499931E-1,5.679647608E-1,3.982246220E-1,7.047726157E-1
5.918965542E0,-5.987108094E-1,9.506012906E-1,4.327167624E-1,1.203885893E0
5.928975542E0,-7.153122564E-1,7.748765997E-1,4.096986133E-1,1.131352431E0
5.938984542E0,-5.028388383E-1,4.512174258E-1,3.699276066E-1,7.702535276E-1
5.948994542E0,-2.131980525E-1,2.251335901E-1,5.080160362E-1,5.951628651E-1
5.959003542E0,1.702590975E-1,3.310452305E-2,8.896994698E-1,9.064486838E-1
5.969013542E0,4.437090528E-1,-1.775755540E-1,1.425645316E0,1.503620753E0
5.979023542E0,3.296155497E-1,-3.167319044E-1,1.973282670E0,2.025539436E0
5.989032542E0,-1.505774701E-1,-2.798839208E-1,2.999996436E0,3.016784248E0
5.999042542E0,-3.501463298E-1,9.788239002E-3,3.795410138E0,3.811539896E0
6.009051542E0,-8.207470563E-1,2.101403059E-1,3.206679722E0,3.316712155E0
6.019061542E0,-1.223176046E0,4.406220518E-1,1.520715196E0,2.000720405E0
6.029070542E0,-1.032887475E0,2.351856847E-1,-1.850082421E-1,1.075358960E0
6.039080542E0,-2.745389444E-1,-1.205290948E-1,-1.406978080E0,1.438570893E0
6.049090542E0,1.991954511E-1,2.787850097E-2,-2.098271583E0,2.107889863E0
6.059099542E0,5.374266903E-1,6.091541559E-1,-2.377948585E0,2.512873993E0
6.069109542E0,8.029283975E-1,1.095835602E0,-2.262882982E0,2.639353912E0
6.079118542E0,9.725779045E-1,1.108541602E0,-1.274784814E0,1.949320031E0
6.089128542E0,1.244157390E0,8.399610069E-1,4.212673295E-1,1.559143440E0
6.099138542E0,1.769539657E0,4.541051464E-1,9.681281734E-1,2.067547881E0
6.109147542E0,1.777094406E0,1.538227022E-2,2.233341680E0,2.854140186E0
6.119157542E0,1.434565975E0,-4.345735458E-1,3.151011890E0,3.489370951E0
6.129166542E0,1.028258308E0,-8.804260781E-1,3.623672152E0,3.868263834E0
6.139176542E0,5.374306738E-1,-1.220851704E0,3.713162034E0,3.945488930E0
6.149185542E0,8.190085329E-2,-1.570577619E0,3.322483828E0,3.675910853E0
6.159197750E0,-4.999559417E-2,-1.901383991E0,2.405207135E0,3.066395605E0
6.169207750E0,-6.802519128E-2,-1.981568467E0,1.212854029E0,2.324275352E0
6.179216750E0,-2.207710556E-1,-1.977943632E0,1.407015502E-2,1.990276071E0
6.189226750E0,-4.428083988E-1,-1.712974131E0,-9.678480917E-1,2.016702651E0
6.199235750E0,-6.095917469E-1,-1.350922139E0,-1.678353206E0,2.239076195E0
6.209245750E0,-6.707983538E-1,-1.156490671E0,-2.065801409E0,2.460686198E0
6.219255750E0,-5.809173667E-1,-1.130555638E0,-2.244598154E0,2.579504199E0
6.229264750E0,-4.385203432E-1,-1.156936082E0,-2.307816496E0,2.618552686E0
6.239274750E0,-3.045121738E-1,-1.091882592E0,-2.233106037E0,2.504335806E0
6.249283750E0,-7.133643296E-2,-9.524506187E-1,-2.118137498E0,2.323522655E0
6.259293750E0,1.689695854E-1,-7.803233542E-1,-2.134819019E0,2.279233973E0
6.269303750E0,3.121654117E-1,-5.716659021E-1,-2.121561043E0,2.219295024E0
6.279312750E0,3.302658697E-1,-3.735698372E-1,-1.947724491E0,2.010537406E0
6.289322750E0,4.305724423E-1,-3.064873633E-1,-1.748608087E0,1.826734073E0
6.299331750E0,4.868761589E-1,-3.147037245E-1,-1.673693560E0,1.771252935E0
6.309341750E0,5.272351031E-1,-4.848530222E-1,-1.703626041E0,1.848080354E0
6.319350750E0,4.434497653E-1,-7.351837264E-1,-1.810789717E0,2.004021508E0
6.329360750E0,2.577913128E-1,-9.131500205E-1,-1.879091628E0,2.105061677E0
6.339370750E0,6.023289934E-2,-9.582817546E-1,-1.874809712E0,2.106381584E0
6.349379750E0,-1.342932943E-1,-9.514865591E-1,-1.820061062E0,2.058150536E0
6.359389750E0,-2.022182789E-1,-9.211101276E-1,-1.836374794E0,2.064366363E0
6.369398750E0,-1.044627003E-1,-8.432393946E-1,-1.934240227E0,2.112640619E0
6.379408750E0,3.620464370E-2,-6.771543503E-1,-1.994471226E0,2.106600166E0
6.389417750E0,1.540732554E-1,-4.653044647E-1,-2.056808977E0,2.114405349E0
6.399427750E0,2.076108735E-1,-2.849222472E-1,-2.002537460E0,2.033332053E0
6.409437750E0,2.492037264E-1,-1.110620141E-1,-1.857451667E0,1.877382210E0
6.419446750E0,3.328786615E-1,5.500885069E-2,-1.745479826E0,1.777789077E0
6.429456750E0,4.427051224E-1,1.304043111E-1,-1.652415542E0,1.715654462E0
6.439465750E0,5.427059221E-1,1.477275646E-1,-1.644721191E0,1.738235009E0
6.449475750E0,5.824348654E-1,1.876947454E-1,-1.587106236E0,1.700989681E0
6.459485750E0,6.379515468E-1,1.972615211E-1,-1.510582556E0,1.651591336E0
6.469494750E0,7.110825267E-1,1.697508100E-1,-1.452965262E0,1.626518291E0
6.479504750E0,7.842735869E-1,1.394617943E-1,-1.287068059E0,1.513631012E0
6.489513750E0,8.195670882E-1,1.246237537E-1,-1.109830767E0,1.385260128E0
6.499523750E0,8.783757520E-1,1.641311972E-1,-7.816838551E-1,1.187228984E0
6.509532750E0,1.061565218E0,2.771078821E-1,-2.619090682E-1,1.127965358E0
6.519542750E0,1.318288975E0,4.644189039E-1,4.019989997E-1,1.454363756E0
6.529552750E0,1.639886274E0,7.590295489E-1,1.036439440E0,2.083160954E0
6.539561750E0,1.997680762E0,1.039771622E0,1.386197076E0,2.644502938E0
6.549571750E0,2.364049754E0,1.214332205E0,1.534283659E0,3.068771788E0
6.559580750E0,2.659276549E0,1.348281244E0,1.673507618E0,3.419099564E0
6.569590750E0,2.770424225E0,1.530123950E0,2.204761659E0,3.857136718E0
6.579600750E0,2.916042114E0,1.608213515E0,3.327052258E0,4.707327166E0
6.589609750E0,3.056643092E0,1.409490044E0,4.604281207E0,5.703431828E0
6.599619750E0,3.000433516E0,1.050696048E0,5.771900007E0,6.589491115E0
6.609628750E0,2.559985272E0,7.061536894E-1,6.783234426E0,7.284534776E0
6.619638750E0,1.930937281E0,1.871149208E-1,7.485031866E0,7.732349760E0
6.629648750E0,1.196573773E0,-3.698790747E-1,7.906793870E0,8.005372485E0
6.639657750E0,2.234365819E-1,-7.789207533E-1,7.970708030E0,8.011793055E0
6.649667750E0,-8.042242867E-1,-1.154429162E0,7.423972317E0,7.556113310E0
6.659676750E0,-1.649732839E0,-1.475148867E0,6.248134087E0,6.628488681E0
6.669686750E0,-2.220339518E0,-1.586240702E0,4.677074949E0,5.414895864E0
6.679695750E0,-2.464040650E0,-1.395988531E0,2.844154106E0,4.013663274E0
6.689705750E0,-2.306972012E0,-1.035968154E0,1.051403049E0,2.738758524E0
6.699715750E0,-1.796995550E0,-8.444904795E-1,-5.094181985E-1,2.049844891E0
6.709724750E0,-1.251671209E0,-6.992294897E-1,-1.621515346E0,2.164466380E0
6.719734750E0,-8.165361840E-1,-4.991928801E-1,-2.352882156E0,2.540074667E0
6.729743750E0,-4.934662998E-1,-2.575485072E-1,-2.726007020E0,2.782257087E0
6.739753750E0,2.990550771E-1,6.256199151E-2,-2.891313069E0,2.907411083E0
6.749762750E0,8.170244996E-1,2.702372575E-1,-2.767357360E0,2.898072457E0
6.759772750E0,1.068950690E0,3.608131130E-1,-2.497165711E0,2.740196757E0
6.769782750E0,1.135063988E0,6.239512660E-1,-2.006474390E0,2.388226312E0
6.779791750E0,1.097799317E0,8.918315108E-1,-1.453197981E0,2.027883418E0
6.789801750E0,8.753373194E-1,9.613090043E-1,-8.425808519E-1,1.549281419E0
6.799810750E0,6.102101630E-1,8.144287013E-1,-1.971008688E-1,1.036580583E0
6.809820750E0,3.513814811E-1,5.350301725E-1,3.884738052E-1,7.487577232E-1
6.819830750E0,1.447288200E-2,2.592254886E-1,1.044812068E0,1.076587003E0
6.829839750E0,-3.658692004E-1,-5.196040481E-2,1.522937722E0,1.567130965E0
6.839849750E0,-7.095743836E-1,-4.165784472E-1,1.709708315E0,1.897402417E0
6.849858750E0,-1.018304520E0,-7.308107400E-1,1.603564979E0,2.035300733E0
6.859868750E0,-1.257412736E0,-9.665074714E-1,1.189425405E0,1.982411732E0
6.869877750E0,-1.363296310E0,-1.047878786E0,5.113729227E-1,1.793914447E0
6.879887750E0,-1.318971345E0,-9.162353039E-1,-2.377501273E-1,1.623483189E0
6.889897750E0,-1.185742536E0,-6.388628353E-1,-8.298421079E-1,1.582014225E0
6.899906750E0,-1.002890967E0,-3.818016936E-1,-1.264052249E0,1.658128738E0
6.909916750E0,-7.322463776E-1,-2.229518478E-1,-1.630669747E0,1.801381722E0
6.919925750E0,-4.500755377E-1,-7.120315298E-2,-1.931276273E0,1.984304896E0
6.929935750E0,-2.901402294E-1,1.215834939E-1,-2.110476476E0,2.133793536E0
6.939945750E0,-2.599578524E-1,3.066363211E-1,-2.205490807E0,2.241828186E0
6.949954750E0,-2.490796558E-1,4.584727241E-1,-2.208622575E0,2.269416576E0
6.959964750E0,-1.870068935E-1,5.573639050E-1,-2.142085354E0,2.221295965E0
6.969973750E0,-1.585795583E-1,6.358149742E-1,-2.051830657E0,2.153930640E0
6.979983750E0,-2.327936253E-1,6.978648958E-1,-1.922235893E0,2.058202884E0
6.989992750E0,-3.528548698E-1,7.060707320E-1,-1.716709186E0,1.889479523E0
7.000002750E0,-5.171560382E-1,6.380597202E-1,-1.397189841E0,1.620712814E0
7.010012750E0,-7.122145477E-1,4.977065179E-1,-9.893348551E-1,1.316717432E0
7.020021750E0,-9.193268730E-1,3.187504363E-1,-5.995173597E-1,1.142884423E0
7.030031750E0,-1.065920297E0,1.726118526E-1,-2.625312120E-1,1.111262151E0
7.040040750E0,-1.136887661E0,5.538394958E-2,-2.171480477E-2,1.138443002E0
7.050050750E0,-1.154868945E0,-1.644587874E-2,1.076022166E-1,1.159987494E0
7.060060750E0,-1.107153839E0,-1.713643491E-2,1.729530376E-1,1.120712288E0
7.070069750E0,-9.921144752E-1,7.610589713E-2,2.326197803E-1,1.021858699E0
7.080079750E0,-7.958789212E-1,2.120314416E-1,3.016046458E-1,8.771236811E-1
7.090088750E0,-6.247485338E-1,3.268042450E-1,2.473752290E-1,7.471989353E-1
7.100098750E0,-4.858045835E-1,4.739669685E-1,1.893509692E-1,7.046308041E-1
7.110107750E0,-3.346653148E-1,6.163564637E-1,2.070335340E-1,7.312722116E-1
7.120117750E0,-1.244740650E-2,7.009259132E-1,3.663485259E-1,7.909888217E-1
7.130127750E0,4.079113387E-1,7.168630841E-1,5.796444279E-1,1.008103172E0
7.140136750E0,8.544050914E-1,6.469536276E-1,7.982267976E-1,1.336309499E0
7.150146750E0,1.181108618E0,5.734146582E-1,1.108444392E0,1.718275562E0
7.160153625E0,1.369075551E0,5.883692046E-1,1.683142076E0,2.248002098E0
7.170163625E0,1.492025686E0,6.165577541E-1,2.533766942E0,3.004373317E0
7.180173625E0,1.449982597E0,5.255031578E-1,3.176149655E0,3.530797322E0
7.190182625E0,1.298329651E0,4.312073037E-1,3.530504372E0,3.786299082E0
7.200192625E0,9.563227911E-1,3.985070425E-1,3.481660241E0,3.632536191E0
7.210201625E0,4.821732799E-1,3.737250808E-1,3.046924435E0,3.107396019E0
7.220211625E0,1.166903977E-1,3.137566218E-1,2.416238492E0,2.439317183E0
7.230220625E0,-1.080753843E-1,2.672158550E-1,1.809206876E0,1.832024596E0
7.240230625E0,-2.342467681E-1,3.003530493E-1,1.424598080E0,1.474640021E0
7.250240625E0,-2.284821991E-1,3.914051606E-1,1.405618603E0,1.476877033E0
7.260249625E0,4.514909294E-3,4.651734871E-1,1.835587174E0,1.893617445E0
7.270259625E0,3.835916725E-1,4.671976469E-1,2.392517508E0,2.467702623E0
7.280268625E0,6.807449792E-1,4.568189853E-1,2.836704168E0,2.952793229E0
7.290278625E0,8.162764214E-1,4.227786885E-1,3.060304034E0,3.195388833E0
7.300287625E0,7.656261583E-1,2.282378769E-1,2.848916078E0,2.958817122E0
7.310297625E0,6.130476706E-1,-1.143354316E-1,2.211725693E0,2.297962266E0
7.320307625E0,2.767056484E-1,-4.535094613E-1,1.365956354E0,1.465630789E0
7.330316625E0,-1.294608994E-1,-6.925038761E-1,3.323077905E-1,7.789417247E-1
7.340326625E0,-4.701739528E-1,-7.806643930E-1,-7.530821997E-1,1.182215395E0
7.350335625E0,-6.810358051E-1,-6.326489992E-1,-1.608164399E0,1.857484120E0
7.360345625E0,-8.032813501E-1,-4.087136498E-1,-2.365602189E0,2.531478124E0
7.370355625E0,-8.723363091E-1,-2.488762093E-1,-2.990873610E0,3.125417565E0
7.380364625E0,-9.688222378E-1,-1.182546741E-1,-3.389979408E0,3.527684946E0
7.390374625E0,-1.062398738E0,1.892539054E-2,-3.573683721E0,3.728305860E0
7.400383625E0,-1.036854519E0,1.765885440E-1,-3.597659644E0,3.748253689E0
7.410393625E0,-7.486700369E-1,3.577978501E-1,-3.424618313E0,3.523710646E0
7.420402625E0,-1.786025808E-1,4.843552780E-1,-2.914147616E0,2.959519428E0
7.430412625E0,4.453730972E-1,5.625907311E-1,-2.007497653E0,2.131880004E0
7.440422625E0,9.042691232E-1,6.844683400E-1,-7.370222372E-1,1.352553634E0
7.450431625E0,1.297690988E0,7.926918232E-1,8.049598664E-1,1.720558809E0
7.460441625E0,1.650569722E0,7.668751967E-1,2.339124243E0,2.963778028E0
7.470450625E0,1.856855397E0,4.977342921E-1,3.538672348E0,4.027139602E0
7.480460625E0,1.784037828E0,9.287220329E-2,4.123760533E0,4.494086910E0
7.490470625E0,1.478380623E0,-2.662512106E-1,4.028003606E0,4.298989652E0
7.500479625E0,1.014534527E0,-6.038010299E-1,3.330065913E0,3.533156517E0
7.510489625E0,5.068755367E-1,-9.973274142E-1,2.259944757E0,2.521692900E0
7.520498625E0,1.082918957E-1,-1.374453236E0,1.059669258E0,1.738892684E0
7.530508625E0,-1.999636656E-1,-1.636918082E0,-1.029162580E-1,1.652294777E0
7.540517625E0,-5.327286353E-1,-1.670860876E0,-1.020023966E0,2.028798846E0
7.550527625E0,-8.247427511E-1,-1.590113752E0,-1.605703890E0,2.405607477E0
7.560537625E0,-9.737368226E-1,-1.487153055E0,-1.869793385E0,2.579905989E0
7.570546625E0,-8.842875794E-1,-1.425862833E0,-1.983959101E0,2.598296183E0
7.580556625E0,-6.739950997E-1,-1.344267277E0,-2.057127650E0,2.548155818E0
7.590565625E0,-4.165631714E-1,-1.199769422E0,-2.100191224E0,2.454337939E0
7.600575625E0,-2.407306724E-1,-1.015774502E0,-2.152430833E0,2.392218131E0
7.610584625E0,-1.259624738E-1,-8.114008668E-1,-2.181909571E0,2.331301629E0
7.620594625E0,6.111553654E-2,-6.630748397E-1,-2.201712336E0,2.300204461E0
7.630604625E0,1.864419794E-1,-5.847908548E-1,-2.278074633E0,2.359314517E0
7.640613625E0,1.807682799E-1,-5.371889645E-1,-2.318001761E0,2.386290284E0
7.650623625E0,4.525416009E-2,-4.948495683E-1,-2.286854228E0,2.340219283E0
7.660632625E0,-1.046319041E-1,-4.885576719E-1,-2.203827274E0,2.259754652E0
7.670642625E0,-2.100224845E-1,-5.102362239E-1,-2.045697513E0,2.118803616E0
7.680652625E0,-2.598259246E-1,-5.274624136E-1,-1.853271493E0,1.944309989E0
7.690661625E0,-2.651404589E-1,-5.161927825E-1,-1.623656012E0,1.724242818E0
7.700671625E0,-3.163288119E-1,-4.363610396E-1,-1.354588782E0,1.457870242E0
7.710680625E0,-3.949508391E-1,-2.997171646E-1,-1.075799972E0,1.184551444E0
7.720690625E0,-4.419687752E-1,-1.570351624E-1,-8.218629974E-1,9.462849608E-1
7.730699625E0,-4.163672896E-1,-3.160478532E-2,-6.153715003E-1,7.436683842E-1
7.740709625E0,-3.399589087E-1,8.316202462E-2,-4.681590754E-1,5.845176660E-1
7.750719625E0,-2.772266171E-1,1.584151053E-1,-4.250972557E-1,5.316555460E-1
7.760728625E0,-2.441052833E-1,2.222783947E-1,-3.494898337E-1,4.807683620E-1
7.770738625E0,-1.840539034E-1,3.287908365E-1,-1.339947939E-1,3.999173144E-1
7.780747625E0,-1.125525059E-1,4.224832579E-1,2.193892854E-1,4.891746400E-1
7.790757625E0,-7.719563540E-2,4.525937873E-1,6.163842380E-1,7.685895077E-1
7.800767625E0,2.500452138E-3,4.396522911E-1,1.021310939E0,1.111924648E0
7.810776625E0,3.218614474E-2,4.314347604E-1,1.422910573E0,1.487227757E0
7.820786625E0,-8.187055741E-2,5.026738738E-1,1.884402654E0,1.952013620E0
7.830795625E0,-1.953268601E-1,6.608505589E-1,2.394096841E0,2.491300007E0
7.840805625E0,-2.075054409E-1,7.912830828E-1,2.835440585E0,2.951086365E0
7.850814625E0,-8.599445242E-2,8.529690152E-1,2.993196124E0,3.113546888E0
7.860824625E0,1.281802221E-1,8.902517393E-1,2.975684883E0,3.108645823E0
7.870834625E0,3.829720138E-1,9.882746087E-1,2.992217301E0,3.174384765E0
7.880843625E0,7.339319837E-1,1.119678648E0,3.179358607E0,3.449732973E0
7.890853625E0,1.179922657E0,1.125604801E0,3.689605356E0,4.033905220E0
7.900862625E0,1.594740800E0,9.775575395E-1,4.667287295E0,5.028159470E0
7.910872625E0,1.845192395E0,6.607014549E-1,5.852805006E0,6.172243338E0
7.920881625E0,1.949404103E0,2.373172872E-1,6.670981919E0,6.954027294E0
7.930891625E0,1.806999113E0,-1.245473014E-1,6.967338688E0,7.198928130E0
7.940901625E0,1.393677419E0,-3.778695872E-1,6.510482866E0,6.668696223E0
7.950910625E0,8.239592973E-1,-6.338832003E-1,5.352667508E0,5.452684319E0
7.960920625E0,2.642704663E-1,-8.612923805E-1,3.527055100E0,3.640299592E0
7.970929625E0,-2.122160675E-1,-1.000844076E0,1.477717111E0,1.797323672E0
7.980939625E0,-5.770645267E-1,-9.459355049E-1,-3.505581200E-1,1.162191225E0
7.990949625E0,-7.185169691E-1,-7.026922108E-1,-1.860312125E0,2.114427625E0
8.000958625E0,-5.863164664E-1,-3.914586626E-1,-2.860435093E0,2.946030517E0
8.010968625E0,-2.470902869E-1,-8.073367596E-2,-3.288139037E0,3.298398076E0
8.020977625E0,2.136956688E-1,1.701137759E-1,-3.349582749E0,3.360700690E0
8.030987625E0,8.003679749E-1,3.274455383E-1,-3.136021968E0,3.253066747E0
8.040996625E0,1.317683496E0,3.832871787E-1,-2.898693425E0,3.207120582E0
8.051006625E0,1.679702743E0,4.386967099E-1,-2.785799478E0,3.282458658E0
8.061016625E0,1.909512206E0,5.081875058E-1,-2.857232573E0,3.473941476E0
8.071025625E0,2.118898074E0,5.949164781E-1,-3.022418754E0,3.738805931E0
8.081035625E0,2.305902702E0,6.828159168E-1,-3.107184085E0,3.929124303E0
8.091044625E0,2.455832913E0,7.452641800E-1,-3.031334004E0,3.971840862E0
8.101054625E0,2.475046864E0,7.667008035E-1,-2.660654445E0,3.713861761E0
8.111063625E0,2.401344464E0,7.084618047E-1,-1.981267628E0,3.192772272E0
8.121073625E0,2.155625313E0,4.619215581E-1,-1.118383489E0,2.472018132E0
8.131083625E0,1.787234355E0,1.485730720E-1,-1.136377126E-1,1.796995862E0
8.141092625E0,1.376888893E0,-1.215504572E-1,8.743639773E-1,1.635576321E0
8.151102625E0,9.081345713E-1,-4.216247405E-1,1.635473235E0,1.917615322E0
8.161111042E0,4.762808214E-1,-7.378504953E-1,2.068672977E0,2.247370610E0
8.171121042E0,1.594950861E-1,-1.021939953E0,2.152496322E0,2.388103927E0
8.181130042E0,-5.659688137E-2,-1.227099893E0,1.807032296E0,2.185027019E0
8.191140042E0,-1.948025842E-1,-1.273268923E0,1.078258141E0,1.679822138E0
8.201150042E0,-1.953825183E-1,-1.116192391E0,2.441715395E-1,1.159171913E0
8.211159042E0,3.444614841E-2,-7.302397594E-1,-4.775362551E-1,8.731995867E-1
8.221169042E0,4.683639837E-1,-3.027172248E-1,-9.565998030E-1,1.107287552E0
8.231178042E0,1.029916798E0,4.777599111E-2,-1.298721560E0,1.658218576E0
8.241188042E0,1.575653295E0,3.847333413E-1,-1.489329681E0,2.202000442E0
8.251197042E0,2.008594152E0,6.899316859E-1,-1.589721696E0,2.652860959E0
8.261207042E0,2.254335084E0,8.850415778E-1,-1.599214650E0,2.902208256E0
8.271217042E0,2.390544657E0,9.875176866E-1,-1.568607400E0,3.024966796E0
8.281226042E0,2.471634429E0,1.000608579E0,-1.556777313E0,3.087677101E0
8.291236042E0,2.459847026E0,9.671435022E-1,-1.430120190E0,3.005238378E0
8.301245042E0,2.363955321E0,9.060997403E-1,-1.252120421E0,2.824377285E0
8.311255042E0,2.229207698E0,7.944462803E-1,-1.083662138E0,2.602851414E0
8.321265042E0,2.087215960E0,6.474547340E-1,-1.041073943E0,2.420641041E0
8.331274042E0,1.851787177E0,4.972048268E-1,-9.433137596E-1,2.136859667E0
8.341284042E0,1.550851745E0,3.759718734E-1,-7.514017099E-1,1.763831203E0
8.351293042E0,1.275382399E0,2.595827535E-1,-5.489178944E-1,1.412548875E0
8.361303042E0,1.046358364E0,1.129319537E-1,-3.558200294E-1,1.110957850E0
8.371312042E0,8.906804864E-1,-3.440399364E-2,-2.393417394E-1,9.229191903E-1
8.381322042E0,7.889886354E-1,-1.803591210E-1,-2.730135155E-1,8.541480310E-1
8.391332042E0,7.002485132E-1,-2.682639684E-1,-2.988634712E-1,8.072378283E-1
8.401341042E0,6.185722661E-1,-2.765445028E-1,-2.745343763E-1,7.310797728E-1
8.411351042E0,6.047716312E-1,-2.611195479E-1,-2.639550090E-1,7.096508937E-1
8.421360042E0,7.757734895E-1,-2.912767088E-1,-3.853817976E-1,9.138849807E-1
8.431370042E0,9.933491148E-1,-3.706140697E-1,-5.965025353E-1,1.216516554E0
8.441379042E0,1.130156346E0,-3.641129892E-1,-5.332993966E-1,1.301629703E0
8.451389042E0,1.226583876E0,-3.032833815E-1,-2.145998311E-1,1.281616909E0
8.461399042E0,1.172777578E0,-1.886209443E-1,4.051950878E-1,1.255057038E0
8.471408042E0,1.054175872E0,-2.844378054E-3,1.215546672E0,1.608989923E0
8.481418042E0,9.383702311E-1,1.270740294E-1,1.955843350E0,2.173018571E0
8.491427042E0,8.611980942E-1,1.235390952E-1,2.484729853E0,2.632642495E0
8.501437042E0,8.428379101E-1,-5.315849930E-3,2.813564982E0,2.937099234E0
8.511447042E0,8.497494652E-1,-1.877369915E-1,3.127782657E0,3.246589546E0
8.521456042E0,9.179931962E-1,-3.915123108E-1,3.654584042E0,3.788400444E0
8.531466042E0,9.602059270E-1,-6.442367189E-1,4.501208829E0,4.647355946E0
8.541475042E0,9.052014618E-1,-8.671279018E-1,5.428580155E0,5.571425579E0
8.551485042E0,7.062119423E-1,-1.114789206E0,6.129747266E0,6.270190732E0
8.561494042E0,3.583917079E-1,-1.312945058E0,6.529818438E0,6.670142291E0
8.571504042E0,-9.912755460E-2,-1.504391524E0,6.355531651E0,6.531906513E0
8.581514042E0,-5.694340199E-1,-1.745806832E0,5.371696102E0,5.676901938E0
8.591523042E0,-1.039691734E0,-1.891395339E0,3.700190570E0,4.283660291E0
8.601533042E0,-1.461397385E0,-1.815685737E0,1.721900344E0,2.897816041E0
8.611542042E0,-1.748325081E0,-1.579886825E0,-8.231944084E-2,2.357850602E0
8.621552042E0,-1.985854476E0,-1.258083411E0,-1.503805633E0,2.790667170E0
8.631561042E0,-2.088423994E0,-8.637666298E-1,-2.405778993E0,3.300815071E0
8.641571042E0,-1.993228985E0,-4.648730864E-1,-2.859767341E0,3.516722624E0
8.651581042E0,-1.809068297E0,-1.358707269E-1,-3.013971866E0,3.517842431E0
8.661590042E0,-1.555593545E0,1.287469178E-1,-2.838533762E0,3.239401328E0
8.671600042E0,-1.321790580E0,3.318218869E-1,-2.350199454E0,2.716739512E0
8.681609042E0,-1.058303787E0,4.507698946E-1,-1.502437969E0,1.892226269E0
8.691619042E0,-7.338688338E-1,4.773735563E-1,-1.926832974E-1,8.964239123E-1
8.701628042E0,-3.956858706E-1,3.366304909E-1,1.440165707E0,1.531001195E0
8.711638042E0,-7.857312977E-2,2.378340349E-2,2.955922464E0,2.957062224E0
8.721648042E0,2.300937100E-1,-3.763421483E-1,4.221318403E0,4.244302721E0
8.731657042E0,4.251750968E-1,-7.315583065E-1,5.210681909E0,5.278935250E0
8.741667042E0,4.883522885E-1,-1.055832754E0,5.698805718E0,5.816326794E0
8.751676042E0,4.303708595E-1,-1.412629414E0,5.502393651E0,5.697111271E0
8.761686042E0,3.286499186E-1,-1.706671564E0,4.799682291E0,5.104673220E0
8.771696042E0,1.758957951E-1,-1.897520005E0,3.702525364E0,4.164158446E0
8.781705042E0,1.977089792E-3,-1.990140485E0,2.269673939E0,3.018622674E0
8.791715042E0,-2.058921576E-1,-1.899455433E0,8.165338451E-1,2.077751199E0
8.801724042E0,-2.972639653E-1,-1.720498767E0,-3.944017124E-1,1.789981727E0
8.811734042E0,-2.959397171E-1,-1.552270572E0,-1.291305537E0,2.040733749E0
8.821743042E0,-2.404289561E-1,-1.403709487E0,-1.871914170E0,2.352077607E0
8.831753042E0,-1.718653824E-1,-1.204950932E0,-2.210146945E0,2.523131779E0
8.841763042E0,6.693088487E-3,-9.724896115E-1,-2.466432161E0,2.651239040E0
8.851772042E0,2.516298824E-1,-7.931528762E-1,-2.765215525E0,2.887702544E0
8.861782042E0,4.159024360E-1,-6.883880210E-1,-3.047496293E0,3.151838599E0
8.871791042E0,4.677871194E-1,-5.353880221E-1,-3.194314615E0,3.272477805E0
8.881801042E0,4.369886651E-1,-3.845167020E-1,-3.205129625E0,3.257555541E0
8.891810042E0,4.193877420E-1,-2.917485791E-1,-3.162694627E0,3.203691717E0
8.901820042E0,4.330860872E-1,-2.719329500E-1,-3.101018196E0,3.142900721E0
8.911830042E0,3.771693101E-1,-3.567193311E-1,-3.019079994E0,3.063388545E0
8.921839042E0,2.458051054E-1,-4.974074328E-1,-2.816059404E0,2.870195964E0
8.931849042E0,7.381700456E-2,-6.421453160E-1,-2.487186853E0,2.569805050E0
8.941858042E0,-6.334507987E-2,-7.559982061E-1,-2.090626933E0,2.224020427E0
8.951868042E0,-1.525159226E-1,-8.142692184E-1,-1.735160660E0,1.922778714E0
8.961877042E0,-2.847186179E-1,-7.972476813E-1,-1.464228169E0,1.691340500E0
8.971887042E0,-3.841771249E-1,-6.808632392E-1,-1.323779803E0,1.537387323E0
8.981897042E0,-4.366285497E-1,-5.007119867E-1,-1.269097812E0,1.432468582E0
8.991906042E0,-4.253046126E-1,-3.255092329E-1,-1.221498553E0,1.333753721E0
9.001916042E0,-3.637531661E-1,-1.389678508E-1,-1.163067911E0,1.226521665E0
9.011925042E0,-2.381804824E-1,2.330934048E-2,-1.138067556E0,1.162957880E0
9.021935042E0,-1.428872395E-1,1.811441097E-1,-1.071032152E0,1.095600211E0
9.031944042E0,-1.188323790E-1,3.629355061E-1,-9.931992799E-1,1.064090281E0
9.041954042E0,-1.199983138E-1,5.129525480E-1,-9.668967497E-1,1.101094563E0
9.051964042E0,-1.052848189E-1,6.020395562E-1,-9.104050452E-1,1.096528097E0
9.061973042E0,-9.049297124E-2,6.650207931E-1,-7.286262202E-1,9.906249552E-1
9.071983042E0,-1.123423351E-1,6.891601458E-1,-4.627311051E-1,8.376649584E-1
9.081992042E0,-1.302723833E-1,6.723856536E-1,-7.851582706E-2,6.893751490E-1
9.092002042E0,-1.101265327E-1,6.656835750E-1,4.210258394E-1,7.953145495E-1
9.102011042E0,-1.052185991E-1,6.206120673E-1,9.598245424E-1,1.147821172E0
9.112021042E0,-7.129722007E-2,5.959338936E-1,1.420808499E0,1.542373914E0
9.122031042E0,-8.809926733E-2,6.480097809E-1,1.837225564E0,1.950147668E0
9.132040042E0,-1.721086266E-1,7.829667342E-1,2.231580498E0,2.371204294E0
9.142050042E0,-2.561169626E-1,9.422875732E-1,2.468130192E0,2.654273613E0
9.152059042E0,-1.523215026E-1,9.992903244E-1,2.576017753E0,2.767246006E0
9.162069292E0,1.140353233E-1,9.570140782E-1,2.656935616E0,2.826338067E0
9.172079292E0,3.751951439E-1,9.693797699E-1,2.854588462E0,3.037950596E0
9.182088292E0,5.927203370E-1,1.055411023E0,3.113062291E0,3.340114767E0
9.192098292E0,8.374816413E-1,1.098119963E0,3.353315611E0,3.626564289E0
9.202107292E0,1.124238745E0,1.084124653E0,3.582107220E0,3.907778288E0
9.212117292E0,1.460192859E0,9.762426469E-1,3.796580166E0,4.183208559E0
9.222126292E0,1.762179036E0,7.532742807E-1,3.924101508E0,4.367066491E0
9.232136292E0,1.898398110E0,5.107873240E-1,4.093226373E0,4.540850275E0
9.242146292E0,1.813383688E0,2.707316396E-1,4.253229582E0,4.631589133E0
9.252155292E0,1.558108286E0,-4.157399565E-2,4.230599688E0,4.508592192E0
9.262165292E0,1.092668020E0,-4.556656221E-1,3.852263786E0,4.030073304E0
9.272174292E0,4.561086948E-1,-9.251487994E-1,3.037257818E0,3.207626926E0
9.282184292E0,-2.735182764E-1,-1.323784188E0,1.745572797E0,2.207768379E0
9.292193292E0,-9.019685362E-1,-1.462735375E0,4.075485921E-1,1.766136425E0
9.302203292E0,-1.317842833E0,-1.347620071E0,-7.471086842E-1,2.027550486E0
9.312213292E0,-1.520118780E0,-1.158381660E0,-1.706342658E0,2.562072294E0
9.322222292E0,-1.439585663E0,-9.227403313E-1,-2.420125721E0,2.963252454E0
9.332232292E0,-1.153400052E0,-7.031958023E-1,-2.806440150E0,3.114630368E0
9.342241292E0,-6.979221985E-1,-5.199826553E-1,-2.897226943E0,3.025128314E0
9.352251292E0,-7.676714413E-2,-3.541389549E-1,-2.709264688E0,2.733390339E0
9.362260292E0,6.637107244E-1,-2.369092977E-1,-2.369012870E0,2.471610795E0
9.372270292E0,1.330117600E0,-1.198614889E-1,-1.911795689E0,2.332068259E0
9.382280292E0,1.845499958E0,3.030027151E-2,-1.315190243E0,2.266387782E0
9.392289292E0,2.356779326E0,1.187189430E-1,-7.104238379E-1,2.464387349E0
9.402299292E0,2.836070915E0,1.424659476E-1,-2.126807749E-1,2.847600374E0
9.412308292E0,3.099233918E0,1.140095955E-1,2.399603748E-1,3.110599629E0
9.422318292E0,3.070592210E0,-1.351993203E-2,6.044845694E-1,3.129556023E0
9.432327292E0,2.775437627E0,-2.319885734E-1,8.148796678E-1,2.901878977E0
9.442337292E0,2.314524129E0,-5.009338886E-1,8.022391570E-1,2.500308855E0
9.452347292E0,1.728051615E0,-7.936849728E-1,6.718386465E-1,2.016795822E0
9.462356292E0,1.117140883E0,-1.077381644E0,4.359520268E-1,1.612082234E0
9.472366292E0,6.199462887E-1,-1.292662675E0,1.503605658E-1,1.441498697E0
9.482375292E0,2.828687782E-1,-1.361518610E0,-2.081725717E-1,1.406088009E0
9.492385292E0,3.084493965E-2,-1.266300796E0,-5.670723295E-1,1.387818483E0
9.502394292E0,-3.979863480E-2,-1.001102377E0,-8.995467657E-1,1.346467335E0
9.512404292E0,1.092797828E-1,-6.626120326E-1,-1.221057088E0,1.393548416E0
9.522414292E0,2.962124167E-1,-3.872274712E-1,-1.483956090E0,1.561989944E0
9.532423292E0,5.030802552E-1,-1.624926612E-1,-1.601840635E0,1.686827504E0
9.542433292E0,7.664964433E-1,4.312175363E-2,-1.528580285E0,1.710536165E0
9.552442292E0,1.057924156E0,2.033763930E-1,-1.378085818E0,1.749195815E0
9.562452292E0,1.276249980E0,2.753646809E-1,-1.280493450E0,1.828743611E0
9.572461292E0,1.426388497E0,3.546076092E-1,-1.206026820E0,1.901270994E0
9.582471292E0,1.520391845E0,4.318572217E-1,-1.272011479E0,2.028818677E0
9.592481292E0,1.550168352E0,4.669367149E-1,-1.461594583E0,2.181125980E0
9.602490292E0,1.501689379E0,5.035066634E-1,-1.583736486E0,2.239823923E0
9.612500292E0,1.453373398E0,5.490427324E-1,-1.622644444E0,2.246489961E0
9.622509292E0,1.452539877E0,5.853399083E-1,-1.608125807E0,2.244674478E0
9.632519292E0,1.461284827E0,6.095929894E-1,-1.549913852E0,2.215669178E0
9.642528292E0,1.464998539E0,6.650851125E-1,-1.368094096E0,2.111928120E0
9.652538292E0,1.452082332E0,7.718731043E-1,-1.114493921E0,1.986561826E0
9.662548292E0,1.441828216E0,8.521620995E-1,-7.849922097E-1,1.849665272E0
9.672557292E0,1.485854096E0,9.054471910E-1,-5.334859228E-1,1.819946219E0
9.682567292E0,1.560149110E0,9.325390953E-1,-3.803467602E-1,1.856975516E0
9.692576292E0,1.537947232E0,9.812189198E-1,-2.163715374E-1,1.837087069E0
9.702586292E0,1.457253318E0,1.027844617E0,-7.483909786E-2,1.784839679E0
9.712595292E0,1.322954322E0,1.009455709E0,-4.545566976E-2,1.664714746E0
9.722605292E0,1.214636260E0,9.142639151E-1,-2.042315483E-2,1.520406806E0
9.732615292E0,1.220172550E0,7.577093938E-1,1.605148405E-1,1.445236864E0
9.742624292E0,1.272997320E0,5.780080846E-1,3.767665100E-1,1.447953219E0
9.752634292E0,1.278004875E0,4.466495079E-1,5.886064553E-1,1.476228235E0
9.762643292E0,1.157760467E0,3.802651915E-1,7.856260478E-1,1.449903170E0
9.772653292E0,1.065700515E0,2.846784183E-1,9.972829753E-1,1.487055050E0
9.782662292E0,1.109655497E0,1.071566588E-1,1.245418342E0,1.671491764E0
9.792672292E0,1.265935053E0,6.634543240E-3,1.477955092E0,1.946018199E0
9.802682292E0,1.410999941E0,-8.660194159E-2,1.624923103E0,2.153786392E0
9.812691292E0,1.364135677E0,-1.715266094E-1,1.676490283E0,2.168157557E0
9.822701292E0,1.216385016E0,-1.962351885E-1,1.595817418E0,2.016118545E0
9.832710292E0,1.059891671E0,-1.187879401E-1,1.285478202E0,1.670309892E0
9.842720292E0,9.462299122E-1,-4.595326781E-3,8.029840922E-1,1.241030063E0
9.852729292E0,9.799092896E-1,1.832637253E-1,3.084932506E-1,1.043540078E0
9.862739292E0,1.053470040E0,3.044197878E-1,-6.735349238E-2,1.098638715E0
9.872749292E0,1.265297414E0,2.955831832E-1,-1.258607322E-1,1.305445475E0
9.882758292E0,1.550037813E0,2.854315397E-1,2.265836996E-1,1.592302910E0
9.892768292E0,1.908205207E0,2.911770138E-1,1.136687028E0,2.240109052E0
9.902777292E0,2.200379025E0,1.190186128E-1,2.360477105E0,3.229192692E0
9.912787292E0,2.241092602E0,-1.933965115E-1,3.495267881E0,4.156536518E0
9.922796292E0,2.002958459E0,-4.347197261E-1,4.395824461E0,4.850164587E0
9.932806292E0,1.474676851E0,-6.739532921E-1,4.818531960E0,5.084007779E0
9.942816292E0,8.637043570E-1,-1.099657781E0,4.603114103E0,4.810809900E0
9.952825292E0,3.163107952E-1,-1.600553517E0,3.745521110E0,4.085431735E0
9.962835292E0,-1.318538359E-1,-1.993390806E0,2.426633672E0,3.143174084E0
9.972844292E0,-5.667359319E-1,-2.087399708E0,9.982354867E-1,2.382205123E0
9.982854292E0,-9.474756615E-1,-1.842794890E0,-1.953578138E-1,2.081289939E0
9.992863292E0,-1.105620625E0,-1.460876252E0,-1.043306994E0,2.108327744E0
1.000287329E1,-1.015235024E0,-1.118055899E0,-1.516292362E0,2.140068614E0
1.001288329E1,-7.640151773E-1,-8.798219146E-1,-1.611944624E0,1.989012635E0
1.002289229E1,-4.909967648E-1,-7.070306987E-1,-1.437080131E0,1.675162540E0
1.003290229E1,-2.648257325E-1,-6.008027239E-1,-1.132419730E0,1.308996191E0
1.004291129E1,-1.393490162E-2,-5.251951557E-1,-6.781273270E-1,8.578349519E-1
1.005292129E1,3.637476113E-1,-5.370916083E-1,-3.319557881E-1,7.286798788E-1
1.006293029E1,8.277393030E-1,-6.214432490E-1,-4.213111836E-1,1.117518313E0
1.007294029E1,1.230150093E0,-7.028499395E-1,-8.318254834E-1,1.642924503E0
1.008295029E1,1.551099082E0,-7.446762425E-1,-1.186891807E0,2.090254346E0
1.009295929E1,1.820867539E0,-6.989904848E-1,-1.133040705E0,2.255643485E0
1.010296929E1,1.925768635E0,-6.554679045E-1,-5.569964075E-1,2.109139162E0
1.011297829E1,1.785487645E0,-7.859219170E-1,3.985210758E-1,1.991094784E0
1.012298829E1,1.644145386E0,-1.047409109E0,1.352034718E0,2.372399159E0
1.013299729E1,1.491862695E0,-1.270037021E0,2.101502169E0,2.873144567E0
1.014300729E1,1.265179739E0,-1.372205712E0,2.460343455E0,3.088190118E0
1.015301729E1,9.994159665E-1,-1.432737404E0,2.338833636E0,2.919197068E0
1.016302938E1,7.251787750E-1,-1.545194418E0,1.873485902E0,2.534454472E0
1.017303938E1,5.189914061E-1,-1.607241854E0,1.198478649E0,2.070973088E0
1.018304838E1,3.188656630E-1,-1.497161441E0,4.839290160E-1,1.605414272E0
1.019305838E1,1.938413385E-1,-1.226067567E0,-1.427077299E-1,1.249472544E0
1.020306737E1,1.185376976E-1,-9.195088676E-1,-5.770488489E-1,1.092031647E0
1.021307738E1,1.415596017E-1,-6.580783939E-1,-8.042956227E-1,1.048807772E0
1.022308738E1,2.667064894E-1,-4.481475645E-1,-8.857397354E-1,1.027863546E0
1.023309637E1,4.649659475E-1,-3.344639513E-1,-9.148085833E-1,1.079321181E0
1.024310638E1,6.833652627E-1,-2.469706017E-1,-8.524550450E-1,1.120117031E0
1.025311538E1,8.913858799E-1,-1.519542244E-1,-6.859438848E-1,1.134979245E0
1.026312538E1,1.092040540E0,-5.342045456E-2,-4.811550969E-1,1.194536108E0
1.027313438E1,1.231061820E0,3.626121551E-2,-3.241883469E-1,1.273548650E0
1.028314438E1,1.262363866E0,7.020868778E-2,-1.935100937E-1,1.279037898E0
1.029315438E1,1.232813207E0,4.831992835E-2,-6.810602903E-2,1.235638155E0
1.030316338E1,1.154616053E0,-1.530304044E-2,4.936862648E-2,1.155772328E0
1.031317338E1,1.056218378E0,-1.018579119E-1,1.091569912E-1,1.066718118E0
1.032318238E1,9.733150191E-1,-1.791063550E-1,1.443233156E-1,1.000125208E0
1.033319238E1,8.962001118E-1,-2.347613230E-1,1.209174961E-1,9.342957562E-1
1.034320137E1,7.951020455E-1,-2.243468472E-1,6.721315920E-2,8.288765767E-1
1.035321138E1,6.861586969E-1,-2.076819903E-1,-5.347746491E-2,7.188917900E-1
1.036322138E1,5.913408326E-1,-2.005442941E-1,-2.427500814E-1,6.699474578E-1
1.037323038E1,4.629281563E-1,-2.144045341E-1,-4.870064056E-1,7.052992423E-1
1.038324037E1,2.812306990E-1,-2.187823445E-1,-7.304493821E-1,8.127193366E-1
1.039324938E1,1.087021510E-1,-1.676139450E-1,-8.607674468E-1,8.836465298E-1
1.040325938E1,1.036300203E-2,-1.080243856E-1,-8.595629203E-1,8.663862151E-1
1.041326838E1,-8.629686311E-2,-1.030013350E-1,-7.718406522E-1,7.834503277E-1
1.042327838E1,-1.593111911E-1,-1.073697898E-1,-6.229044682E-1,6.518575794E-1
1.043328838E1,-2.288211367E-1,-8.638998002E-2,-5.153443515E-1,5.704403053E-1
1.044329738E1,-3.114441942E-1,-7.780889869E-2,-4.242733830E-1,5.320334711E-1
1.045330738E1,-3.666367571E-1,-3.147322297E-2,-3.105719358E-1,4.815267414E-1
1.046331638E1,-3.846337559E-1,3.639394730E-2,-1.802415919E-1,4.263269603E-1
1.047332638E1,-3.269458572E-1,1.081077084E-1,5.546551824E-2,3.487940565E-1
1.048333538E1,-2.451825231E-1,2.112827057E-1,3.623139471E-1,4.858253262E-1
1.049334537E1,-1.795905410E-1,2.565711451E-1,6.967045158E-1,7.638577729E-1
1.050335538E1,-1.617222905E-2,2.435815555E-1,9.708003509E-1,1.001022895E0
1.051336438E1,2.245041373E-1,1.546685019E-1,1.142101550E0,1.174189254E0
1.052337437E1,3.300416290E-1,6.104288489E-2,1.251233398E0,1.295468536E0
1.053338338E1,2.968669759E-1,3.249005377E-3,1.334408872E0,1.367036062E0
1.054339338E1,2.500938554E-1,-2.107161105E-2,1.342026624E0,1.365293525E0
1.055340238E1,2.076776779E-1,-1.417657435E-2,1.223854980E0,1.241431434E0
1.056341238E1,1.643111818E-1,1.185122439E-1,9.335629427E-1,9.552921461E-1
1.057342238E1,-1.269013904E-2,3.388765526E-1,5.893584073E-1,6.799571234E-1
1.058343138E1,-1.401504502E-1,5.163123581E-1,2.714733589E-1,5.999319831E-1
1.059344138E1,-1.312669582E-1,5.407832479E-1,-2.751407325E-2,5.571665458E-1
1.060345037E1,7.401003577E-3,5.008520275E-1,-1.782716650E-1,5.316844129E-1
1.061346038E1,2.051872392E-1,5.260447562E-1,-1.814478725E-1,5.930836527E-1
1.062346938E1,3.766898384E-1,6.788020957E-1,5.188468337E-2,7.780485459E-1
1.063347937E1,5.900563455E-1,8.734405558E-1,7.293962985E-1,1.281828325E0
1.064348938E1,1.008227428E0,9.423673877E-1,1.848862107E0,2.307134572E0
1.065349838E1,1.555303084E0,6.837944484E-1,3.162325668E0,3.589825366E0
1.066350838E1,2.040060504E0,1.475957099E-1,4.331713834E0,4.790341960E0
1.067351738E1,2.310526388E0,-3.523975079E-1,5.337554210E0,5.826851735E0
1.068352738E1,2.198867812E0,-7.950348026E-1,6.057897849E0,6.493475675E0
1.069353638E1,1.728489718E0,-1.171781871E0,6.136567458E0,6.482145449E0
1.070354638E1,1.039008852E0,-1.529211638E0,5.512913377E0,5.814657473E0
1.071355638E1,2.493268834E-1,-1.806236929E0,4.173589920E0,4.554504206E0
1.072356538E1,-3.570084760E-1,-1.929674282E0,2.335076215E0,3.050193243E0
1.073357538E1,-7.553406867E-1,-1.869634049E0,4.523470348E-1,2.066564509E0
1.074358437E1,-1.041169764E0,-1.649948602E0,-1.095926088E0,2.237726269E0
1.075359438E1,-1.224522002E0,-1.408696869E0,-2.018334298E0,2.749100642E0
1.076360338E1,-1.204921404E0,-1.280082099E0,-2.385611946E0,2.963374786E0
1.077361338E1,-8.582679082E-1,-1.196235073E0,-2.256357490E0,2.694206984E0
1.078362238E1,-2.426387651E-1,-1.052813105E0,-1.816888363E0,2.113852485E0
1.079363238E1,4.284710991E-1,-9.010974473E-1,-1.408976074E0,1.726492881E0
1.080364238E1,1.003482486E0,-6.991968915E-1,-1.058660613E0,1.617595650E0
1.081365138E1,1.493961699E0,-5.014165762E-1,-6.954052645E-1,1.722477466E0
1.082366138E1,1.927567530E0,-4.461077634E-1,-3.707146418E-1,2.012947607E0
1.083367038E1,2.137067420E0,-5.411770579E-1,-2.909592050E-1,2.223642738E0
1.084368038E1,2.185475349E0,-6.065275866E-1,-4.523587292E-1,2.312748718E0
1.085368937E1,1.927548673E0,-6.694851422E-1,-5.984940970E-1,2.126464067E0
1.086369938E1,1.419491268E0,-8.716505769E-1,-4.855469406E-1,1.735075220E0
1.087370938E1,8.912232542E-1,-1.165367621E0,-1.352285564E-1,1.473311693E0
1.088371838E1,3.876540256E-1,-1.518834731E0,2.116376317E-1,1.581747474E0
1.089372837E1,-1.894497871E-4,-1.824943195E0,4.047080147E-1,1.869279614E0
1.090373738E1,-3.151451893E-1,-1.925263874E0,4.368250161E-1,1.999193229E0
1.091374738E1,-4.778465961E-1,-1.795346636E0,1.375165719E-1,1.862932559E0
1.092375638E1,-4.687234779E-1,-1.477449308E0,-4.562962443E-1,1.615786007E0
1.093376638E1,-2.986879085E-1,-9.761938226E-1,-1.169494586E0,1.552380892E0
1.094377638E1,-7.835663661E-2,-4.537222999E-1,-1.734144999E0,1.794230354E0
1.095378538E1,1.377226862E-1,-7.213125229E-2,-2.095101222E0,2.100861630E0
1.096379538E1,3.849033491E-1,1.899786678E-1,-2.251369815E0,2.291922452E0
1.097380438E1,5.530648859E-1,3.732909250E-1,-2.250816668E0,2.347637655E0
1.098381438E1,6.080157030E-1,4.966113344E-1,-2.114807509E0,2.255818413E0
1.099382337E1,5.821011356E-1,5.220341510E-1,-1.885208985E0,2.040924864E0
1.100383337E1,5.333493903E-1,4.598648000E-1,-1.546809565E0,1.699575546E0
1.101384338E1,4.341439216E-1,3.243462217E-1,-1.150383546E0,1.271638203E0
1.102385238E1,3.174620023E-1,2.003174222E-1,-7.357071984E-1,8.259384204E-1
1.103386237E1,2.492081849E-1,1.644982561E-1,-4.224022740E-1,5.172891617E-1
1.104387138E1,1.932892151E-1,2.072835025E-1,-2.330682617E-1,3.669441180E-1
1.105388138E1,1.450621113E-1,2.498538637E-1,-1.271798640E-1,3.156654672E-1
1.106389038E1,1.217571563E-1,3.168231940E-1,-1.574532384E-1,3.741567367E-1
1.107390038E1,1.220998031E-1,4.148500103E-1,-2.917491639E-1,5.216574236E-1
1.108391038E1,6.478802651E-2,5.225305796E-1,-4.008418357E-1,6.617475895E-1
1.109391938E1,4.941131115E-2,6.613285688E-1,-3.939263338E-1,7.713461674E-1
1.110392938E1,8.248586722E-2,7.492294693E-1,-3.578338104E-1,8.343822576E-1
1.111393837E1,1.417642817E-1,7.790923691E-1,-2.242524147E-1,8.230256233E-1
1.112394838E1,2.140838143E-1,8.217603788E-1,-2.040093541E-2,8.494340456E-1
1.113395738E1,2.893181109E-1,8.367950320E-1,2.000899655E-1,9.077262193E-1
1.114396737E1,3.132096148E-1,7.860718980E-1,3.755783558E-1,9.257798837E-1
1.115397638E1,2.881337573E-1,6.720301428E-1,5.220207024E-1,8.984159330E-1
1.116398400E1,3.004585916E-1,6.267191917E-1,7.250886548E-1,1.004393283E0
1.117399400E1,4.368478203E-1,6.427244827E-1,1.086310927E0,1.335665455E0
1.118400300E1,6.367739906E-1,6.705443653E-1,1.570074466E0,1.822153860E0
1.119401300E1,8.357503539E-1,6.440412757E-1,2.001175643E0,2.262293476E0
1.120402200E1,9.805065096E-1,5.128838432E-1,2.339240602E0,2.587757610E0
1.121403200E1,1.032345804E0,3.882346541E-1,2.471318679E0,2.706266805E0
1.122404100E1,9.818568510E-1,3.149444836E-1,2.241192736E0,2.467017994E0
1.123405100E1,8.413780066E-1,3.069218114E-1,1.588913026E0,1.823941488E0
1.124406100E1,6.602383554E-1,4.324741030E-1,7.570185453E-1,1.093629560E0
1.125407000E1,4.903073050E-1,6.288253587E-1,1.455547392E-2,7.975176782E-1
1.126408000E1,4.420858292E-1,7.682931465E-1,-4.977606046E-1,1.016602114E0
1.127408900E1,4.090580508E-1,8.656194663E-1,-7.086088622E-1,1.191113793E0
1.128409900E1,3.222497756E-1,9.638161442E-1,-7.541118944E-1,1.265492484E0
1.129410800E1,3.501092000E-1,1.029768936E0,-6.716462731E-1,1.278322819E0
1.130411800E1,5.941887190E-1,1.033148627E0,-5.621489739E-1,1.317751034E0
1.131412800E1,1.063229993E0,9.241027325E-1,-3.293116772E-1,1.446675520E0
1.132413700E1,1.647150709E0,7.330250806E-1,2.722165400E-1,1.823330215E0
1.133414700E1,2.043654349E0,4.499724805E-1,1.256610498E0,2.440915459E0
1.134415600E1,2.223621561E0,1.443247774E-1,2.317605904E0,3.215061370E0
1.135416600E1,2.233201054E0,-1.494086391E-1,3.317827106E0,4.002185227E0
1.136417500E1,2.082302106E0,-4.552998787E-1,4.180083838E0,4.692161648E0
1.137418500E1,1.670974312E0,-8.458090997E-1,4.569461623E0,4.938372982E0
1.138419500E1,1.069523424E0,-1.239792151E0,4.292043400E0,4.593756794E0
1.139420400E1,4.439300410E-1,-1.545766714E0,3.366680592E0,3.731086548E0
1.140421400E1,1.651546061E-3,-1.728495419E0,2.005405519E0,2.647517788E0
1.141422300E1,-2.628078584E-1,-1.706187414E0,6.364460349E-1,1.839893208E0
1.142423300E1,-4.455834874E-1,-1.474499680E0,-5.416123831E-1,1.632800638E0
1.143424200E1,-5.662298188E-1,-1.183194320E0,-1.426171566E0,1.937661049E0
1.144425200E1,-5.060053614E-1,-9.090324113E-1,-1.982289137E0,2.238716501E0
1.145426100E1,-2.048733533E-1,-6.379999325E-1,-2.297968031E0,2.393673761E0
1.146427100E1,2.712135598E-1,-4.374749342E-1,-2.387589474E0,2.442442345E0
1.147428100E1,8.722688469E-1,-2.901864955E-1,-2.281346151E0,2.459593747E0
1.148429000E1,1.425881398E0,-2.000081044E-1,-2.104809939E0,2.550169775E0
1.149430000E1,1.812597676E0,-8.981849492E-2,-1.743815124E0,2.516837079E0
1.150430900E1,1.970844381E0,1.403682590E-2,-1.107516439E0,2.260755907E0
1.151431900E1,1.881316786E0,-4.461834848E-2,-1.133406740E-1,1.885255885E0
1.152432800E1,1.712911128E0,-2.674101287E-1,9.940412790E-1,1.998422071E0
1.153433800E1,1.569663407E0,-6.197694835E-1,1.913538160E0,2.551388977E0
1.154434800E1,1.299289033E0,-1.043180695E0,2.506607210E0,3.009893297E0
1.155435700E1,9.055888398E-1,-1.413498895E0,2.674398326E0,3.157606163E0
1.156436700E1,4.397978868E-1,-1.711498440E0,2.440813755E0,3.013340485E0
1.157437600E1,7.189619422E-2,-1.930074378E0,1.940030140E0,2.737530477E0
1.158438600E1,-1.260349061E-1,-1.991233622E0,1.257478809E0,2.358420890E0
1.159439500E1,-1.221273581E-1,-1.879158871E0,5.188351393E-1,1.953290315E0
1.160440500E1,6.789494455E-2,-1.607583770E0,-1.469574863E-1,1.615714023E0
1.161441500E1,3.180514748E-1,-1.251495646E0,-5.452136832E-1,1.401661890E0
1.162442400E1,5.881213557E-1,-9.637912935E-1,-8.094207072E-1,1.389223620E0
1.163443400E1,8.818834236E-1,-7.706539598E-1,-1.063072922E0,1.581692112E0
1.164444300E1,1.112674487E0,-5.698088264E-1,-1.300853455E0,1.804146980E0
1.165445300E1,1.285382015E0,-3.697720706E-1,-1.530273054E0,2.032405946E0
1.166446200E1,1.463411605E0,-2.134245408E-1,-1.709469749E0,2.260400492E0
1.167447200E1,1.642223260E0,-9.244828016E-2,-1.722690888E0,2.381828671E0
1.168448200E1,1.807152310E0,2.519799113E-2,-1.600464785E0,2.414108933E0
1.169449100E1,1.929248459E0,9.216439784E-2,-1.385304791E0,2.376880993E0
1.170450100E1,2.029258651E0,1.070078471E-1,-1.099157844E0,2.310300698E0
1.171451000E1,2.057027516E0,4.996942788E-2,-8.834523046E-1,2.239273793E0
1.172452000E1,1.950934320E0,-4.492211133E-2,-7.318837041E-1,2.084182447E0
1.173452900E1,1.672125337E0,-1.217752826E-1,-7.518004900E-1,1.837399341E0
1.174453900E1,1.260763483E0,-2.146258512E-1,-9.653115696E-1,1.602315587E0
1.175454800E1,8.085018173E-1,-2.996680480E-1,-1.117889400E0,1.411790649E0
1.176455800E1,4.603471222E-1,-3.943359312E-1,-1.107238696E0,1.262298629E0
1.177456800E1,1.965912109E-1,-4.498312703E-1,-9.716189611E-1,1.088595279E0
1.178457700E1,-8.542343527E-3,-4.577349517E-1,-7.272164565E-1,8.593241718E-1
1.179458700E1,-1.331383230E-1,-4.210501054E-1,-5.839181578E-1,7.320993234E-1
1.180459600E1,-1.715410812E-1,-2.931849477E-1,-5.958032084E-1,6.858317718E-1
1.181460600E1,-1.685120042E-1,-1.044874048E-1,-7.492282999E-1,7.750206182E-1
1.182461500E1,-1.738347246E-1,8.290884018E-2,-1.018486149E0,1.036535780E0
1.183462500E1,-1.895920938E-1,2.155318773E-1,-1.334279648E0,1.364808167E0
1.184463500E1,-2.416892503E-1,2.931975192E-1,-1.581431513E0,1.626439089E0
1.185464400E1,-3.619598251E-1,3.301922679E-1,-1.656451875E0,1.727389552E0
1.186465400E1,-5.013122765E-1,3.888129437E-1,-1.544877645E0,1.670070789E0
1.187466300E1,-6.163548557E-1,4.186565477E-1,-1.321609316E0,1.517174281E0
1.188467300E1,-6.906455579E-1,4.562605762E-1,-1.029147377E0,1.320723031E0
1.189468200E1,-7.381639060E-1,4.926688492E-1,-7.355060542E-1,1.152639451E0
1.190469200E1,-7.661779893E-1,5.533790275E-1,-4.200464308E-1,1.034261120E0
1.191470100E1,-7.333645114E-1,5.918577996E-1,-6.403578222E-2,9.445738420E-1
1.192471100E1,-6.180015779E-1,6.051520291E-1,3.124623406E-1,9.196562634E-1
1.193472100E1,-4.280882527E-1,5.668653381E-1,6.074871147E-1,9.346852187E-1
1.194473000E1,-2.001365239E-1,5.401073098E-1,8.026215649E-1,9.879129064E-1
1.195474000E1,5.770785235E-2,5.658806670E-1,8.274962050E-1,1.004141969E0
1.196474900E1,3.235624755E-1,6.573457378E-1,8.569153011E-1,1.127430675E0
1.197475900E1,4.966523380E-1,7.689220145E-1,1.027472734E0,1.376083148E0
1.198476800E1,5.753177076E-1,8.505465138E-1,1.264659775E0,1.629043948E0
1.199477800E1,6.737831381E-1,8.664281362E-1,1.341072358E0,1.732961772E0
1.200478800E1,9.035101546E-1,7.372435543E-1,1.362371426E0,1.793297120E0
1.201479700E1,1.222028603E0,5.309752746E-1,1.518445306E0,2.020139796E0
1.202480700E1,1.413498018E0,3.903570472E-1,2.025155075E0,2.500321649E0
1.203481600E1,1.387940277E0,2.572510301E-1,2.785862043E0,3.123072787E0
1.204482600E1,1.287160445E0,1.905519873E-2,3.593012862E0,3.816659080E0
1.205483500E1,1.250896453E0,-2.965539671E-1,4.248048949E0,4.438311173E0
1.206484500E1,1.299245178E0,-6.139278227E-1,4.718528785E0,4.932490172E0
1.207485400E1,1.353699859E0,-9.319593439E-1,5.041434252E0,5.302557010E0
1.208486400E1,1.260592013E0,-1.212599237E0,5.239643168E0,5.523888998E0
1.209487400E1,9.532556342E-1,-1.394146804E0,5.240638949E0,5.506054687E0
1.210488300E1,4.597851317E-1,-1.547496613E0,4.888402678E0,5.148070404E0
1.211489300E1,-3.993151277E-2,-1.718000398E0,4.097407717E0,4.443182406E0
1.212490200E1,-4.813050780E-1,-1.827510853E0,3.052533669E0,3.590182766E0
1.213491200E1,-7.801353662E-1,-1.791987703E0,1.989411045E0,2.788832627E0
1.214492100E1,-9.501880386E-1,-1.642674373E0,1.080129250E0,2.183555725E0
1.215493100E1,-1.053122131E0,-1.528148615E0,3.042487568E-1,1.880657256E0
1.216494063E1,-1.001297674E0,-1.424353520E0,-3.407090700E-1,1.774108974E0
1.217494962E1,-8.187921859E-1,-1.241229982E0,-8.585168535E-1,1.717010105E0
1.218495963E1,-5.019511579E-1,-9.890582818E-1,-1.189796703E0,1.626593817E0
1.219496863E1,-7.309428871E-2,-6.389239387E-1,-1.228114677E0,1.386301639E0
1.220497862E1,3.579014920E-1,-2.425939608E-1,-1.150830858E0,1.229372593E0
1.221498763E1,6.618670973E-1,9.689040989E-2,-1.013983208E0,1.214750078E0
1.222499763E1,8.023009913E-1,3.264175978E-1,-8.033413571E-1,1.181352049E0
1.223500663E1,8.350325350E-1,3.580533734E-1,-6.716527051E-1,1.129866766E0
1.224501663E1,6.568759140E-1,1.718049368E-1,-5.515438789E-1,8.747591401E-1
1.225502663E1,2.429620430E-1,-1.248251903E-1,-4.267356455E-1,5.066706955E-1
1.226503563E1,-3.016974704E-1,-4.459561743E-1,-3.250250834E-1,6.289193731E-1
1.227504563E1,-8.117954077E-1,-7.844481263E-1,-3.110923380E-1,1.170960755E0
1.228505463E1,-1.242547652E0,-1.050496292E0,-3.278861260E-1,1.659812170E0
1.229506463E1,-1.565551060E0,-1.178593877E0,-3.575309247E-1,1.991949299E0
1.230507363E1,-1.754577948E0,-1.175605950E0,-3.951454782E-1,2.148658435E0
1.231508362E1,-1.814034337E0,-1.059635637E0,-5.264482141E-1,2.165801464E0
1.232509363E1,-1.724608482E0,-8.497933924E-1,-6.977096522E-1,2.045292641E0
1.233510263E1,-1.542354279E0,-6.442506060E-1,-8.664573723E-1,1.882727793E0
1.234511263E1,-1.389982125E0,-4.497964793E-1,-9.882110202E-1,1.763782356E0
1.235512163E1,-1.203990600E0,-2.827225247E-1,-1.084850292E0,1.645121743E0
1.236513163E1,-9.868944465E-1,-1.346695626E-1,-1.164863006E0,1.532645544E0
1.237514063E1,-7.666103178E-1,-1.273055792E-2,-1.211130270E0,1.433418982E0
1.238515063E1,-5.629900228E-1,9.855335802E-2,-1.167378479E0,1.299785768E0
1.239515963E1,-3.660415471E-1,1.636217585E-1,-1.052983552E0,1.126735485E0
1.240516963E1,-1.824001647E-1,2.102851707E-1,-8.530777735E-1,8.973468452E-1
1.241517963E1,2.098711878E-3,2.556309128E-1,-6.035133469E-1,6.554234723E-1
1.242518862E1,1.377309454E-1,2.804269078E-1,-3.599446553E-1,4.766227217E-1
1.243519863E1,2.222132713E-1,3.119434002E-1,-1.357156295E-1,4.063325670E-1
1.244520763E1,2.419425078E-1,3.823429996E-1,9.615336835E-2,4.625665538E-1
1.245521762E1,2.225109677E-1,4.776464751E-1,3.111543185E-1,6.119430495E-1
1.246522663E1,2.043424261E-1,4.958576283E-1,4.509665072E-1,7.007149244E-1
1.247523663E1,1.878602216E-1,4.305880836E-1,5.061589605E-1,6.905754512E-1
1.248524663E1,1.097351347E-1,3.415402517E-1,5.348296130E-1,6.439986477E-1
1.249525563E1,-3.495779805E-2,2.407371774E-1,6.112468743E-1,6.578747431E-1
1.250526563E1,-1.284941719E-1,2.104909927E-1,7.315837419E-1,7.720310756E-1
1.251527463E1,-7.907840230E-2,1.996145868E-1,7.436483020E-1,7.740233679E-1
1.252528463E1,-1.332909353E-2,9.225386024E-2,5.630827743E-1,5.707456966E-1
1.253529362E1,-1.448277476E-1,6.920472085E-3,3.408061337E-1,3.703671020E-1
1.254530363E1,-3.201489807E-1,4.806995988E-3,-9.101775885E-3,3.203144070E-1
1.255531263E1,-4.199070478E-1,8.623473644E-2,-2.922122633E-1,5.187931818E-1
1.256532262E1,-3.898614591E-1,2.247424114E-1,-5.007771832E-1,6.732599022E-1
1.257533262E1,-2.611864255E-1,3.663610974E-1,-7.238180548E-1,8.522625059E-1
1.258534163E1,-1.248172600E-1,5.317414060E-1,-9.266696602E-1,1.075660230E0
1.259535163E1,-5.259544898E-2,7.213619319E-1,-1.030063636E0,1.258634344E0
1.260536063E1,-1.305292223E-2,8.990535530E-1,-9.973157197E-1,1.342797943E0
1.261537063E1,9.708989130E-2,1.061572819E0,-8.381328750E-1,1.356034665E0
1.262537963E1,2.701975695E-1,1.161780354E0,-5.319048357E-1,1.306010365E0
1.263538963E1,4.321509712E-1,1.206874374E0,-2.106781036E-1,1.299109495E0
1.264539963E1,5.233068705E-1,1.162703045E0,3.470965683E-2,1.275512921E0
1.265540863E1,4.717684154E-1,1.088318861E0,2.628539783E-1,1.214946745E0
1.266541863E1,3.558897209E-1,1.007785159E0,4.938564187E-1,1.177362554E0
1.267542762E1,2.432170912E-1,8.959182760E-1,6.610709989E-1,1.139666169E0
1.268543762E1,1.259464122E-1,7.655142573E-1,6.595706034E-1,1.018286776E0
1.269544663E1,-3.690793583E-2,7.020161265E-1,5.594691950E-1,8.984401025E-1
1.270545663E1,-2.373336594E-1,7.064366215E-1,4.813270050E-1,8.871615704E-1
1.271546563E1,-4.615249341E-1,7.305870840E-1,4.325945556E-1,9.663854312E-1
1.272547563E1,-6.402409510E-1,7.312150750E-1,4.106733441E-1,1.055100259E0
1.273548563E1,-7.669025324E-1,7.299041292E-1,3.994887900E-1,1.131587745E0
1.274549463E1,-8.675181303E-1,7.547714603E-1,3.579314590E-1,1.204318311E0
1.275550463E1,-8.557789678E-1,8.260016567E-1,3.605387324E-1,1.242829255E0
1.276551363E1,-7.351324902E-1,8.425285193E-1,2.997972715E-1,1.157649553E0
1.277552363E1,-4.744857993E-1,7.974280679E-1,3.595482141E-1,9.951397969E-1
1.278553262E1,-9.797157833E-2,7.103495783E-1,7.605151802E-1,1.045264700E0
1.279554263E1,2.868979849E-1,5.076792365E-1,1.669322181E0,1.768243537E0
1.280555163E1,5.503096779E-1,1.857178017E-1,2.706334063E0,2.767955185E0
1.281556163E1,5.791230755E-1,-7.195875943E-2,3.627337772E0,3.673981615E0
1.282557162E1,3.784218202E-1,-3.773734510E-1,4.307005840E0,4.340036071E0
1.283558063E1,-1.379584752E-2,-8.277464658E-1,4.406209116E0,4.483306069E0
1.284559063E1,-5.323945766E-1,-1.302922785E0,3.801911657E0,4.054082389E0
1.285559963E1,-1.094209419E0,-1.658314798E0,2.567443396E0,3.246393046E0
1.286560963E1,-1.561428043E0,-1.829391756E0,1.060404253E0,2.628533604E0
1.287561863E1,-1.845416928E0,-1.780515758E0,-3.671975416E-1,2.590489150E0
1.288562863E1,-2.004741568E0,-1.511411983E0,-1.472068115E0,2.910384764E0
1.289563762E1,-2.088656275E0,-1.072513252E0,-2.119031537E0,3.162762142E0
1.290564763E1,-1.915158862E0,-7.209081879E-1,-2.430744265E0,3.177429741E0
1.291565763E1,-1.433996017E0,-5.837345552E-1,-2.475295955E0,2.919619954E0
1.292566663E1,-8.104821230E-1,-4.473193064E-1,-2.156123350E0,2.346453437E0
1.293567662E1,-1.266332499E-1,-2.506929392E-1,-1.529266164E0,1.554843378E0
1.294568563E1,4.447889969E-1,-4.946276665E-2,-7.067225504E-1,8.365049793E-1
1.295569563E1,8.683694118E-1,1.355975157E-1,3.050504100E-1,9.303267567E-1
1.296570463E1,1.197604052E0,1.647648892E-1,1.345237915E0,1.808609406E0
1.297571463E1,1.388075202E0,-4.412747473E-2,2.091339709E0,2.510458479E0
1.298572363E1,1.323631868E0,-3.295283166E-1,2.411530899E0,2.770572416E0
1.299573363E1,1.010031879E0,-5.068898624E-1,2.400111287E0,2.652854296E0
1.300574363E1,6.793700796E-1,-6.515654728E-1,2.013379952E0,2.222561608E0
1.301575263E1,5.235529652E-1,-8.407155901E-1,1.331470646E0,1.659434992E0
1.302576263E1,4.409639677E-1,-9.900891459E-1,5.474215919E-1,1.214247148E0
1.303577163E1,3.221950310E-1,-1.035486636E0,-9.966111302E-2,1.089024586E0
1.304578162E1,1.628916606E-1,-9.110549632E-1,-4.645753169E-1,1.035560266E0
1.305579063E1,5.698879100E-2,-6.719883353E-1,-5.702842051E-1,8.831987996E-1
1.306580063E1,-1.622668125E-2,-5.259830680E-1,-5.185468715E-1,7.387911417E-1
1.307581062E1,-1.149426650E-1,-4.767576984E-1,-4.668995851E-1,6.771299297E-1
1.308581963E1,-2.258997946E-1,-4.176715842E-1,-4.928805184E-1,6.844059285E-1
1.309582963E1,-3.407695886E-1,-3.359967989E-1,-6.427025557E-1,8.013016513E-1
1.310583863E1,-3.772659353E-1,-2.401357913E-1,-7.430249888E-1,8.672259902E-1
1.311584863E1,-3.094049046E-1,-1.652233109E-1,-8.618971288E-1,9.305357587E-1
1.312585763E1,-1.892699122E-1,-1.051060402E-1,-1.020571851E0,1.043281976E0
1.313586763E1,-8.518062964E-2,-1.150351971E-2,-1.178744296E0,1.181874015E0
1.314587662E1,-4.966208361E-2,1.094788805E-1,-1.285644847E0,1.291253120E0
1.315588662E1,-8.949675187E-2,1.261829138E-1,-1.298687062E0,1.307868449E0
1.316589663E1,-1.118055607E-1,6.495028675E-2,-1.146094029E0,1.153364880E0
1.317590563E1,-1.274979526E-1,-2.697759122E-2,-9.303317714E-1,9.394150963E-1
1.318591562E1,-2.260944338E-1,-8.982960463E-2,-7.432349038E-1,7.820397516E-1
1.319592463E1,-2.379788996E-1,-4.036508381E-2,-5.697544473E-1,6.187757485E-1
1.320593463E1,-1.457401691E-1,8.665895194E-2,-3.995478469E-1,4.340373864E-1
1.321594363E1,-4.701534145E-2,2.033337083E-1,-2.965947515E-1,3.626616686E-1
1.322595363E1,1.086207285E-1,3.323507676E-1,-2.406690574E-1,4.244727206E-1
1.323596263E1,2.041683253E-1,4.514614740E-1,-2.438464344E-1,5.522347790E-1
1.324597263E1,2.182999492E-1,5.603784370E-1,-2.814247352E-1,6.639870045E-1
1.325598263E1,1.974586453E-1,6.535444629E-1,-3.264921498E-1,7.567743425E-1
1.326599162E1,4.900200605E-2,6.624772543E-1,-4.205288261E-1,7.862072263E-1
1.327600163E1,-1.313519255E-1,6.533512124E-1,-4.527920079E-1,8.056933272E-1
1.328601063E1,-2.939882820E-1,6.558503124E-1,-3.938818949E-1,8.195801910E-1
1.329602062E1,-4.132912157E-1,6.392851505E-1,-2.400562692E-1,7.981993140E-1
1.330602963E1,-4.727487742E-1,5.507036340E-1,-5.516146302E-2,7.278795800E-1
1.331603963E1,-4.792309244E-1,4.659573063E-1,1.515457964E-1,6.853791787E-1
1.332604863E1,-4.367793348E-1,3.896455872E-1,3.953448683E-1,7.063267203E-1
1.333605863E1,-3.454392482E-1,3.629080242E-1,6.428586763E-1,8.150446527E-1
1.334606863E1,-2.579915068E-1,3.448988923E-1,8.058287627E-1,9.137148670E-1
1.335607763E1,-2.450022827E-1,3.612564781E-1,9.313181967E-1,1.028535826E0
1.336608763E1,-2.063483866E-1,3.833177304E-1,1.052474259E0,1.138953118E0
1.337609663E1,-1.373724380E-1,3.829087177E-1,1.148201950E0,1.218137099E0
1.338610663E1,-6.199532323E-2,3.684161013E-1,1.218469110E0,1.274457067E0
1.339611563E1,-1.471049823E-2,4.249425969E-1,1.248587533E0,1.319000924E0
1.340612562E1,-9.920970798E-3,5.157366997E-1,1.149337479E0,1.259785462E0
1.341613463E1,5.128972918E-2,5.634072948E-1,9.155693060E-1,1.076255346E0
1.342614463E1,1.497499703E-1,5.782045510E-1,8.020871294E-1,1.000044659E0
1.343615463E1,2.772824214E-1,6.320126760E-1,7.497165424E-1,1.019019361E0
1.344616363E1,4.639234255E-1,7.180298960E-1,7.642258233E-1,1.146661670E0
1.345617363E1,6.797396967E-1,8.070946848E-1,9.861960697E-1,1.444309722E0
1.346618263E1,8.582793103E-1,8.265314144E-1,1.458096194E0,1.883040643E0
1.347619263E1,9.985391034E-1,6.880234471E-1,2.229076720E0,2.537565690E0
1.348620163E1,1.134077708E0,3.355220050E-1,3.133519945E0,3.349276714E0
1.349621163E1,1.190995821E0,-1.153556246E-1,3.749816474E0,3.936102331E0
1.350622163E1,1.101820081E0,-5.604889494E-1,4.031728867E0,4.216988619E0
1.351623062E1,7.729587860E-1,-8.905888313E-1,4.154822112E0,4.318930485E0
1.352624063E1,2.781409389E-1,-1.202253612E0,3.875496528E0,4.067216427E0
1.353624963E1,-2.332566883E-1,-1.572628530E0,3.151545156E0,3.529845046E0
1.354625962E1,-6.841612881E-1,-1.821480474E0,2.053276089E0,2.828747157E0
1.355626863E1,-1.037204036E0,-1.845791150E0,6.937540108E-1,2.228010729E0
1.356627863E1,-1.217984230E0,-1.679562702E0,-5.984525818E-1,2.159296633E0
1.357628763E1,-1.199620026E0,-1.424987504E0,-1.617697699E0,2.467108315E0
1.358629763E1,-1.072226958E0,-1.141258674E0,-2.368250393E0,2.839146339E0
1.359630663E1,-8.081718151E-1,-8.794814605E-1,-2.795150346E0,3.039653726E0
1.360631663E1,-5.227286540E-1,-6.445795119E-1,-2.897007673E0,3.013533051E0
1.361632663E1,-1.575859702E-1,-4.244178092E-1,-2.742637671E0,2.779752725E0
1.362633562E1,2.805499186E-1,-2.578446686E-1,-2.398669948E0,2.428746518E0
1.363634563E1,7.927732457E-1,-1.883443710E-1,-1.920006350E0,2.085758232E0
1.364635463E1,1.297508263E0,-1.790823814E-1,-1.337424865E0,1.871978489E0
1.365636462E1,1.622971595E0,-1.881686622E-1,-7.354984528E-1,1.791759531E0
1.366637363E1,1.824683286E0,-1.980542573E-1,-1.584753317E-1,1.842229360E0
1.367638363E1,1.983703432E0,-2.448685277E-1,4.547935098E-1,2.049848052E0
1.368639363E1,2.012041378E0,-3.421080163E-1,9.928607261E-1,2.269608077E0
1.369640263E1,1.777928365E0,-5.044626832E-1,1.383869884E0,2.308810890E0
1.370641263E1,1.267201706E0,-7.107577139E-1,1.564123170E0,2.134820363E0
1.371642163E1,5.806150657E-1,-9.902946755E-1,1.410151364E0,1.818330077E0
1.372643163E1,-6.798776910E-2,-1.235124319E0,9.150769705E-1,1.538674846E0
1.373644062E1,-5.296107537E-1,-1.410863847E0,2.604168588E-1,1.529327070E0
1.374645063E1,-8.505642016E-1,-1.429513249E0,-3.872230858E-1,1.707896165E0
1.375645963E1,-1.118705598E0,-1.226316951E0,-8.768560606E-1,1.877293805E0
1.376646962E1,-1.255836180E0,-9.343914932E-1,-1.178392879E0,1.959291135E0
1.377647962E1,-1.134581665E0,-6.462339815E-1,-1.282140026E0,1.829966382E0
1.378648863E1,-8.191256234E-1,-4.379310170E-1,-1.330954337E0,1.623018733E0
1.379649863E1,-4.697577041E-1,-2.512867239E-1,-1.329856229E0,1.432597260E0
1.380650763E1,-1.802900507E-1,-7.685755670E-2,-1.272855232E0,1.287855593E0
1.381651763E1,-3.937485784E-2,3.694387794E-2,-1.207857583E0,1.209063758E0
1.382652663E1,-4.012140110E-3,8.061731637E-2,-1.117336838E0,1.120248570E0
1.383653663E1,-2.761362210E-2,6.782068491E-2,-9.899722016E-1,9.926767436E-1
1.384654562E1,-1.027458116E-1,3.011169881E-2,-8.937077361E-1,9.000982912E-1
1.385655563E1,-1.734171604E-1,-5.272434354E-3,-8.011164916E-1,8.196883207E-1
1.386656563E1,-2.553448378E-1,-5.334561020E-2,-7.587037128E-1,8.022954968E-1
1.387657462E1,-3.287095602E-1,-8.446916968E-2,-7.356867331E-1,8.101974975E-1
1.388658463E1,-3.718155994E-1,-9.073299944E-2,-6.701371068E-1,7.717273217E-1
1.389659363E1,-3.587523715E-1,-9.502280921E-2,-6.185997480E-1,7.213863365E-1
1.390660363E1,-3.186732165E-1,-4.889032423E-2,-5.922369915E-1,6.743052253E-1
1.391661263E1,-2.964445511E-1,5.076874226E-2,-5.768354255E-1,6.505351222E-1
1.392662263E1,-2.383583108E-1,1.919614586E-1,-4.481452256E-1,5.426767262E-1
1.393663163E1,-7.667413685E-2,3.604723665E-1,-1.841890472E-1,4.120010381E-1
1.394664163E1,1.813394798E-1,5.065137403E-1,1.402571619E-1,5.559786394E-1
1.395665163E1,4.034953387E-1,6.220560372E-1,2.729041725E-1,7.900878997E-1
1.396666063E1,5.126522569E-1,7.468432206E-1,2.716692406E-1,9.457226385E-1
1.397667063E1,5.130472363E-1,8.923524977E-1,1.808976495E-1,1.045100190E0
1.398667962E1,5.171737260E-1,9.918082273E-1,-9.331571460E-3,1.118588084E0
1.399668963E1,5.358665436E-1,1.055569775E0,-1.937012976E-1,1.199541869E0
1.400669863E1,4.659133060E-1,1.070783792E0,-2.664728200E-1,1.197773310E0
1.401670863E1,4.375303365E-1,1.100617894E0,-2.336705250E-1,1.207225935E0
1.402671763E1,4.105559978E-1,1.109189912E0,-6.196060538E-2,1.184355354E0
1.403672763E1,3.691644353E-1,1.101634871E0,2.617184490E-1,1.190956891E0
1.404673763E1,3.681176741E-1,1.055240138E0,6.613347083E-1,1.298616944E0
1.405674663E1,4.058004208E-1,9.290257958E-1,1.034558975E0,1.448473398E0
1.406675663E1,4.762781536E-1,7.920002438E-1,1.431704786E0,1.704078595E0
1.407676563E1,5.776142746E-1,6.553671862E-1,1.759420758E0,1.964358878E0
1.408677563E1,7.114950478E-1,5.066284919E-1,1.953122640E0,2.139529313E0
1.409678462E1,7.916873447E-1,3.633914427E-1,2.070587940E0,2.246365200E0
1.410679463E1,8.112135366E-1,2.525035295E-1,2.129984542E0,2.293176745E0
1.411680363E1,7.431868105E-1,1.918132317E-1,2.042990252E0,2.182413371E0
1.412681363E1,5.123485671E-1,1.881940976E-1,1.791752937E0,1.873044756E0
1.413682263E1,1.503182100E-1,2.433060054E-1,1.391571836E0,1.420656733E0
1.414683263E1,-1.807197663E-1,3.464289625E-1,1.021854145E0,1.094010308E0
1.415684263E1,-3.740910434E-1,4.198194127E-1,7.972111362E-1,9.755706247E-1
1.416685129E1,-5.195179479E-1,4.603948501E-1,6.072193122E-1,9.222676451E-1
1.417686129E1,-5.321916416E-1,5.246516570E-1,4.648741096E-1,8.801109262E-1
1.418687029E1,-3.509760498E-1,5.813620475E-1,5.196864939E-1,8.551257625E-1
1.419688029E1,3.728132623E-2,5.993355113E-1,9.866661859E-1,1.155033815E0
1.420688929E1,5.135320070E-1,4.644889243E-1,1.848680259E0,1.974103286E0
1.421689929E1,9.064961084E-1,9.020090282E-2,2.779419581E0,2.924900786E0
1.422690829E1,1.145191219E0,-2.788081062E-1,3.436681704E0,3.633177400E0
1.423691829E1,1.061721046E0,-6.235236883E-1,3.859685656E0,4.051321604E0
1.424692829E1,7.677999339E-1,-9.537185875E-1,3.899500517E0,4.087199551E0
1.425693729E1,4.038761752E-1,-1.297210347E0,3.423735384E0,3.683454171E0
1.426694729E1,2.280629721E-2,-1.710718129E0,2.396681895E0,2.944683472E0
1.427695629E1,-4.057991052E-1,-1.984407875E0,1.042340450E0,2.277942304E0
1.428696629E1,-7.685668693E-1,-1.986590933E0,-3.635582346E-1,2.160882495E0
1.429697529E1,-9.876208900E-1,-1.762876901E0,-1.534783596E0,2.537457522E0
1.430698529E1,-1.104582599E0,-1.375336750E0,-2.353458692E0,2.941159925E0
1.431699429E1,-1.131750882E0,-9.902990609E-1,-2.921468915E0,3.285807802E0
1.432700429E1,-1.047378045E0,-6.571290985E-1,-3.227602814E0,3.456333223E0
1.433701429E1,-8.117897797E-1,-3.714280021E-1,-3.293322594E0,3.412174544E0
1.434702329E1,-3.890284136E-1,-1.365640604E-1,-3.077056891E0,3.104556645E0
1.435703329E1,1.865393721E-1,1.462914884E-2,-2.505548864E0,2.512525833E0
1.436704229E1,8.137077396E-1,6.936084151E-2,-1.527172276E0,1.731815917E0
1.437705229E1,1.301959164E0,-1.198854625E-2,-2.501251745E-1,1.325822006E0
1.438706129E1,1.565984047E0,-1.729419279E-1,1.199270362E0,1.980016249E0
1.439707129E1,1.715968490E0,-3.659754735E-1,2.538699068E0,3.086013426E0
1.440708029E1,1.714390181E0,-6.229500765E-1,3.544770994E0,3.986552632E0
1.441709029E1,1.509414574E0,-9.317831965E-1,4.052749023E0,4.423949245E0
1.442710029E1,1.156818700E0,-1.262608864E0,3.908991133E0,4.267624904E0
1.443710929E1,8.097820652E-1,-1.580965490E0,3.087079604E0,3.561637173E0
1.444711929E1,5.354170389E-1,-1.817076643E0,1.772526122E0,2.594279820E0
1.445712829E1,2.805619420E-1,-1.873723299E0,3.401477373E-1,1.924903761E0
1.446713829E1,4.973316383E-2,-1.683765681E0,-7.674493933E-1,1.851085851E0
1.447714729E1,-4.684748981E-2,-1.330688873E0,-1.397132539E0,1.930001786E0
1.448715729E1,-2.804721141E-2,-9.748317137E-1,-1.657964550E0,1.923520201E0
1.449716629E1,1.496897074E-1,-6.992825532E-1,-1.640190184E0,1.789309067E0
1.450717629E1,3.955827038E-1,-4.515795878E-1,-1.552286067E0,1.664332249E0
1.451718529E1,5.600068465E-1,-2.236565834E-1,-1.471263539E0,1.590046017E0
1.452719529E1,6.718615969E-1,-1.256508172E-2,-1.438175315E0,1.587420588E0
1.453720529E1,8.052413367E-1,1.032238215E-1,-1.512641360E0,1.716727309E0
1.454721429E1,9.141267979E-1,1.237007707E-1,-1.615752330E0,1.860533600E0
1.455722429E1,9.907677153E-1,1.082483339E-1,-1.689931862E0,1.961939873E0
1.456723329E1,9.706484695E-1,9.796775937E-2,-1.677536350E0,1.940588658E0
1.457724329E1,8.261845283E-1,8.094943821E-2,-1.472475082E0,1.690359888E0
1.458725229E1,6.449104643E-1,1.892012805E-2,-1.086299817E0,1.263453509E0
1.459726229E1,5.166863606E-1,-4.555419534E-2,-6.473861754E-1,8.295473706E-1
1.460727129E1,4.772806953E-1,-1.238323331E-1,-3.317347634E-1,5.942888708E-1
1.461728129E1,4.228954136E-1,-1.493881738E-1,-1.867530513E-1,4.858333659E-1
1.462729129E1,3.649431476E-1,-7.568723649E-2,-1.071285921E-1,3.877996828E-1
1.463730029E1,3.488199621E-1,2.986319214E-2,-1.167174411E-1,3.690394792E-1
1.464731029E1,3.890361977E-1,1.449390274E-1,-1.733424622E-1,4.498934251E-1
1.465731929E1,4.154967854E-1,2.775068083E-1,-2.858089775E-1,5.756165208E-1
1.466732929E1,3.732994035E-1,4.315180832E-1,-3.927925587E-1,6.927093871E-1
1.467733829E1,3.244182886E-1,5.684575349E-1,-4.964987755E-1,8.215243326E-1
1.468734829E1,2.640050392E-1,6.826507330E-1,-5.535716933E-1,9.176885657E-1
1.469735729E1,2.645098184E-1,7.719748458E-1,-5.631184423E-1,9.914701139E-1
1.470736729E1,2.502275739E-1,8.307741541E-1,-5.822405916E-1,1.044894081E0
1.471737729E1,1.509447026E-1,8.810072914E-1,-5.396366090E-1,1.044110061E0
1.472738629E1,1.461796604E-2,9.348136622E-1,-3.844462430E-1,1.010885345E0
1.473739629E1,-9.454870965E-2,9.567854521E-1,-1.500951022E-1,9.730911568E-1
1.474740529E1,-9.930008400E-2,9.331100759E-1,1.404126978E-1,9.488259304E-1
1.475741529E1,3.669675998E-2,8.718800801E-1,4.009090787E-1,9.603382819E-1
1.476742429E1,1.918323813E-1,7.553320621E-1,6.055399919E-1,9.869168497E-1
1.477743429E1,2.259312234E-1,6.964475307E-1,8.441993612E-1,1.117477804E0
1.478744329E1,2.147329284E-1,6.522036964E-1,1.069057547E0,1.270576220E0
1.479745329E1,2.304421310E-1,5.883949323E-1,1.313010986E0,1.457158200E0
1.480746329E1,2.215152965E-1,5.219253927E-1,1.606030165E0,1.703175867E0
1.481747229E1,9.865115270E-2,4.987768507E-1,1.865525503E0,1.933570738E0
1.482748229E1,-1.251117039E-1,5.629076502E-1,1.999930186E0,2.081403063E0
1.483749129E1,-3.233080120E-1,6.408460647E-1,1.932700655E0,2.061684644E0
1.484750129E1,-2.862106812E-1,6.164060189E-1,1.726858783E0,1.855778595E0
1.485751029E1,-3.339417949E-2,5.251665044E-1,1.468812386E0,1.560232307E0
1.486752029E1,2.343048017E-1,5.343185663E-1,1.388997307E0,1.506555207E0
1.487752929E1,4.056545328E-1,6.530420409E-1,1.675176414E0,1.843159115E0
1.488753929E1,5.449807448E-1,7.145929027E-1,2.182297826E0,2.360099750E0
1.489754829E1,7.340373798E-1,5.508714491E-1,2.937099107E0,3.077145007E0
1.490755829E1,9.432861315E-1,1.191552915E-1,3.694771371E0,3.815143797E0
1.491756829E1,1.084515612E0,-3.763665605E-1,4.157635792E0,4.313207772E0
1.492757729E1,9.817879269E-1,-7.619626585E-1,4.518977348E0,4.686752703E0
1.493758729E1,6.613257913E-1,-1.153743210E0,4.876191353E0,5.054277130E0
1.494759629E1,1.305831628E-1,-1.594198616E0,5.095886448E0,5.341027980E0
1.495760629E1,-4.475476402E-1,-1.980380459E0,4.980311553E0,5.378262621E0
1.496761529E1,-9.945247706E-1,-2.211469292E0,4.301190784E0,4.937602466E0
1.497762529E1,-1.401491053E0,-2.280666119E0,3.085515473E0,4.084852611E0
1.498763429E1,-1.604994477E0,-2.206784796E0,1.447235575E0,3.088753343E0
1.499764429E1,-1.618773002E0,-1.943003887E0,-2.935044980E-1,2.545944820E0
1.500765329E1,-1.507055807E0,-1.536241453E0,-1.698259467E0,2.741412086E0
1.501766329E1,-1.311119119E0,-1.148678206E0,-2.636637592E0,3.160751929E0
1.502767329E1,-1.029006021E0,-8.736577798E-1,-3.217914562E0,3.489570953E0
1.503768229E1,-6.475498243E-1,-6.189029261E-1,-3.525859929E0,3.637863362E0
1.504769229E1,-2.540607892E-1,-3.319692367E-1,-3.565157311E0,3.589581746E0
1.505770129E1,1.835709965E-1,-1.892480582E-2,-3.342485983E0,3.347576587E0
1.506771129E1,5.463007537E-1,2.539132932E-1,-2.974349379E0,3.034743927E0
1.507772029E1,7.160698362E-1,4.099129137E-1,-2.383886433E0,2.522637336E0
1.508773029E1,7.577674274E-1,3.860945731E-1,-1.550892676E0,1.768770359E0
1.509773929E1,6.485436317E-1,1.201360157E-1,-7.286414230E-1,9.828325533E-1
1.510774929E1,4.717070927E-1,-2.854128286E-1,-1.247111696E-1,5.652618331E-1
1.511775929E1,2.348154829E-1,-6.288586879E-1,3.789808506E-1,7.708618848E-1
1.512776829E1,-6.459229097E-2,-8.692023477E-1,7.802226359E-1,1.169800088E0
1.513777829E1,-3.998020546E-1,-1.082211444E0,1.042971364E0,1.555253214E0
1.514778729E1,-6.681282227E-1,-1.276674926E0,1.152670977E0,1.845249189E0
1.515779729E1,-8.983308372E-1,-1.376535429E0,1.133234248E0,1.996513947E0
1.516780663E1,-1.025227111E0,-1.351964259E0,9.784186882E-1,1.958622250E0
1.517781663E1,-9.989351061E-1,-1.202273200E0,5.857161766E-1,1.669250021E0
1.518782563E1,-8.501968503E-1,-9.484318274E-1,3.833668470E-2,1.274294831E0
1.519783563E1,-6.759440497E-1,-6.498458067E-1,-5.589178026E-1,1.091599304E0
1.520784563E1,-5.970996822E-1,-4.209571347E-1,-1.020898710E0,1.255375289E0
1.521785463E1,-5.233399073E-1,-2.929650924E-1,-1.368512172E0,1.494168253E0
1.522786463E1,-4.853045735E-1,-1.919754919E-1,-1.674324474E0,1.753778083E0
1.523787363E1,-4.505221188E-1,-7.443768650E-2,-1.839119477E0,1.894959524E0
1.524788363E1,-4.384878912E-1,2.365988106E-2,-1.895417638E0,1.945620581E0
1.525789262E1,-3.697624227E-1,6.752978593E-2,-1.814823711E0,1.853340126E0
1.526790263E1,-2.280288389E-1,6.028040797E-2,-1.703963426E0,1.720209939E0
1.527791163E1,-1.178255615E-1,5.739773065E-2,-1.535897491E0,1.541479311E0
1.528792163E1,-3.770898610E-2,1.120116019E-1,-1.292217118E0,1.297610745E0
1.529793063E1,-6.089071110E-3,1.726565838E-1,-1.029797003E0,1.044188316E0
1.530794063E1,-1.088970825E-2,1.789917496E-1,-7.376420420E-1,7.591260859E-1
1.531795063E1,-2.137647025E-2,1.640825191E-1,-4.073071021E-1,4.396351919E-1
1.532795963E1,-2.521129355E-2,1.255718797E-1,-1.178968245E-1,1.740791990E-1
1.533796963E1,-1.125954464E-4,1.135716391E-1,8.964307845E-2,1.446872883E-1
1.534797863E1,4.160966367E-2,1.304914346E-1,2.121130103E-1,2.524902132E-1
1.535798863E1,2.125916049E-2,1.816547178E-1,3.228493345E-1,3.710553613E-1
1.536799762E1,1.623351518E-2,2.789751904E-1,4.157335246E-1,5.009241932E-1
1.537800763E1,4.085416686E-2,3.663192898E-1,4.208311272E-1,5.594262441E-1
1.538801663E1,9.349833045E-2,4.641249351E-1,3.212483668E-1,5.721489372E-1
1.539802663E1,1.435453436E-1,5.730003829E-1,1.329247534E-1,6.054780711E-1
1.540803563E1,1.268220875E-1,6.853775820E-1,-8.232411861E-2,7.018572022E-1
1.541804563E1,8.455377158E-2,7.508982646E-1,-2.772258496E-1,8.048923629E-1
1.542805563E1,8.018579185E-2,7.820434588E-1,-3.934720051E-1,8.791142995E-1
1.543806463E1,9.438184474E-2,8.056856520E-1,-3.786803037E-1,8.952296213E-1
1.544807463E1,1.160356923E-1,8.510082977E-1,-1.966167194E-1,8.811001866E-1
1.545808363E1,1.293935103E-1,8.187876543E-1,1.459874332E-2,8.290772140E-1
1.546809363E1,1.709191750E-1,7.575656985E-1,1.890258640E-1,7.992808825E-1
1.547810262E1,2.259705277E-1,7.433312367E-1,3.506265324E-1,8.523749011E-1
1.548811263E1,2.419279446E-1,7.333044313E-1,4.605325520E-1,8.990855081E-1
1.549812163E1,2.369025917E-1,7.218060279E-1,5.610777640E-1,9.444231240E-1
1.550813162E1,2.825814424E-1,6.768064409E-1,6.881833684E-1,1.005741308E0
1.551814162E1,2.982545750E-1,6.108508717E-1,8.966342676E-1,1.125187802E0
1.552815063E1,2.632691489E-1,5.453886612E-1,1.075277815E0,1.234091495E0
1.553816063E1,2.052036114E-1,4.771494618E-1,1.224233880E0,1.329860415E0
1.554816963E1,9.404577602E-2,4.187916183E-1,1.331912695E0,1.399365019E0
1.555817963E1,-7.901276730E-2,4.026720142E-1,1.419347865E0,1.477476271E0
1.556818863E1,-3.390308094E-1,4.086981547E-1,1.448129030E0,1.542418153E0
1.557819863E1,-6.340804707E-1,4.518757492E-1,1.320550386E0,1.533004585E0
1.558820762E1,-9.377105190E-1,5.599700090E-1,1.012208578E0,1.489104977E0
1.559821763E1,-1.116786834E0,7.056750217E-1,6.753411287E-1,1.483669676E0
1.560822663E1,-1.194741548E0,8.220739357E-1,4.976939464E-1,1.533268465E0
1.561823662E1,-1.138657832E0,8.915900208E-1,6.863911968E-1,1.600814574E0
1.562824563E1,-8.538095525E-1,8.759238683E-1,1.346876305E0,1.819425501E0
1.563825563E1,-4.145471611E-1,6.212897596E-1,2.343206769E0,2.459363388E0
1.564826563E1,-1.871823465E-2,2.171207120E-1,3.299260442E0,3.306449945E0
1.565827463E1,2.214187809E-1,-5.883746132E-2,4.140801074E0,4.147134150E0
1.566828463E1,2.723817604E-1,-3.081083576E-1,4.808835522E0,4.826388055E0
1.567829363E1,1.913190689E-1,-6.482316828E-1,5.035814493E0,5.080967911E0
1.568830363E1,1.879379164E-2,-1.028234334E0,4.689507884E0,4.800948161E0
1.569831262E1,-2.430462794E-1,-1.402774955E0,3.725369850E0,3.988136105E0
1.570832263E1,-6.230809810E-1,-1.591969658E0,2.290497043E0,2.858141705E0
1.571833163E1,-9.782228795E-1,-1.558104485E0,6.004119837E-1,1.935227154E0
1.572834162E1,-1.154244097E0,-1.368597249E0,-9.082064921E-1,2.007530049E0
1.573835063E1,-1.279712408E0,-1.105611708E0,-2.035460792E0,2.646344976E0
1.574836063E1,-1.380726859E0,-7.967313722E-1,-2.801156021E0,3.222989698E0
1.575837063E1,-1.407484742E0,-4.523470348E-1,-3.241511586E0,3.562727677E0
1.576837963E1,-1.348362521E0,-7.670845270E-2,-3.398101775E0,3.656646188E0
1.577838963E1,-1.252403719E0,3.321472844E-1,-3.259470724E0,3.507561303E0
1.578839863E1,-1.103097990E0,6.370085371E-1,-2.938816434E0,3.203005945E0
1.579840863E1,-8.264042374E-1,7.515481827E-1,-2.445678053E0,2.688700388E0
1.580841762E1,-4.819575176E-1,7.395157823E-1,-1.790867084E0,1.996589981E0
1.581842763E1,-1.643102133E-1,6.391568041E-1,-9.883536923E-1,1.188428495E0
1.582843663E1,3.042576052E-2,3.928481072E-1,-1.279212910E-1,4.142695004E-1
1.583844662E1,9.200317914E-2,5.950916022E-2,7.174305564E-1,7.257496320E-1
1.584845663E1,1.039645541E-1,-2.547433054E-1,1.461020386E0,1.486702172E0
1.585846563E1,4.052659487E-2,-4.891403469E-1,2.221964167E0,2.275527509E0
1.586847563E1,-8.819198225E-2,-7.462465122E-1,2.828908076E0,2.927009153E0
1.587848463E1,-2.495362503E-1,-1.055718294E0,3.071878012E0,3.257797412E0
1.588849463E1,-4.283805769E-1,-1.374880375E0,2.874722764E0,3.215250680E0
1.589850363E1,-6.143412209E-1,-1.555861347E0,2.360029208E0,2.892724932E0
1.590851363E1,-7.445098161E-1,-1.544138264E0,1.539654912E0,2.304169068E0
1.591852263E1,-7.383513824E-1,-1.355474635E0,5.623764306E-1,1.642784679E0
1.592853263E1,-6.155274747E-1,-1.002635517E0,-3.639038050E-1,1.231494227E0
1.593854163E1,-4.591463234E-1,-6.744731095E-1,-9.949955446E-1,1.286757730E0
1.594855162E1,-3.682994128E-1,-4.542362702E-1,-1.538211234E0,1.645621113E0
1.595856163E1,-3.658437284E-1,-2.558013591E-1,-2.015520617E0,2.064364146E0
1.596857063E1,-4.422079263E-1,-6.656148702E-2,-2.392469561E0,2.433904041E0
1.597858063E1,-5.406107185E-1,7.542469651E-2,-2.621965758E0,2.678180963E0
1.598858963E1,-6.169681556E-1,1.060369170E-1,-2.732340724E0,2.803137415E0
1.599859963E1,-7.355547322E-1,7.911575139E-2,-2.686131933E0,2.786145156E0
1.600860863E1,-8.482339400E-1,3.726430535E-2,-2.371672184E0,2.519070938E0
1.601861863E1,-9.548341631E-1,-9.138525635E-2,-1.952208720E0,2.175127222E0
1.602862763E1,-1.002043194E0,-2.377863801E-1,-1.499165282E0,1.818826398E0
1.603863763E1,-9.706511007E-1,-2.819772971E-1,-1.068301502E0,1.470694685E0
1.604864663E1,-8.689276747E-1,-2.301545942E-1,-7.378782696E-1,1.162957773E0
1.605865662E1,-7.574138901E-1,-1.906402802E-1,-4.583977336E-1,9.056202292E-1
1.606866663E1,-6.530123663E-1,-1.638120854E-1,-2.452035731E-1,7.165084383E-1
1.607867563E1,-5.435089641E-1,-1.173009932E-1,-1.283943307E-1,5.706545550E-1
1.608868562E1,-5.256784647E-1,-5.420836687E-2,-1.058889824E-1,5.389701957E-1
1.609869463E1,-5.544083933E-1,5.754566520E-2,-1.240328926E-1,5.710204275E-1
1.610870463E1,-5.463613455E-1,1.546570998E-1,-1.831663692E-1,5.966401404E-1
1.611871363E1,-5.472886408E-1,2.000616065E-1,-2.221012241E-1,6.236011999E-1
1.612872363E1,-5.343505798E-1,2.221918559E-1,-1.973020130E-1,6.114146280E-1
1.613873263E1,-5.457399327E-1,2.765145358E-1,-1.524217093E-1,6.304956305E-1
1.614874263E1,-6.299424693E-1,3.317970362E-1,-1.215717995E-1,7.222856016E-1
1.615875163E1,-6.991349110E-1,4.113510364E-1,-8.491501987E-2,8.156039845E-1
1.616876200E1,-7.387965748E-1,4.683178273E-1,-1.353922784E-2,8.748287129E-1
1.617877200E1,-7.088602193E-1,4.842389184E-1,6.725701332E-2,8.611002535E-1
1.618878100E1,-6.135721658E-1,4.599142089E-1,2.331670797E-1,8.014728750E-1
1.619879100E1,-5.102146258E-1,3.811112836E-1,3.706374586E-1,7.368425209E-1
1.620880000E1,-4.370153065E-1,2.929343945E-1,4.635257417E-1,7.011769040E-1
1.621881000E1,-4.026846588E-1,2.221506330E-1,7.017179185E-1,8.389957541E-1
1.622881900E1,-3.149078654E-1,1.568550682E-1,9.028709078E-1,9.689924418E-1
1.623882900E1,-2.778113386E-1,1.123896244E-1,1.023014233E0,1.066005951E0
1.624883800E1,-1.857641044E-1,1.276844788E-1,1.101249978E0,1.124083245E0
1.625884800E1,-1.802449175E-1,2.114250854E-1,1.117481264E0,1.151500400E0
1.626885700E1,-1.540695278E-1,4.169892141E-1,1.248061284E0,1.324867689E0
1.627886700E1,-1.463419206E-2,7.475597969E-1,1.624721375E0,1.788513169E0
1.628887600E1,3.017131848E-1,1.010328844E0,2.284644565E0,2.516226541E0
