"Time (s)","Linear Acceleration x (m/s^2)","Linear Acceleration y (m/s^2)","Linear Acceleration z (m/s^2)","Absolute acceleration (m/s^2)"
7.650000000E-3,-8.295854151E-1,-4.501557907E-1,-3.106607550E0,3.246823473E0
1.765900000E-2,-4.760001916E-1,-1.355735421E-2,-1.634089199E0,1.702059780E0
2.766800000E-2,2.155529273E-1,2.331492457E-1,1.396239669E0,1.431889258E0
3.767700000E-2,1.009443137E0,-9.226438522E-2,3.244789535E0,3.399433378E0
4.768600001E-2,1.702525449E0,-5.431273967E-2,2.252490141E0,2.824049330E0
5.769500000E-2,1.407571865E0,6.700496909E-1,-4.948130232E-1,1.635562616E0
6.770400000E-2,9.271615572E-1,1.168381568E0,-4.638976246E-1,1.562032346E0
7.771300001E-2,-2.992517263E-2,6.702528816E-1,7.284016871E-1,9.903047304E-1
8.772100000E-2,-7.175498396E-2,-3.381146604E-1,8.225114536E-1,8.921857389E-1
9.773050000E-2,-2.297582991E-1,-7.112848404E-1,2.067376649E-1,7.755355971E-1
1.077395000E-1,-7.092823152E-1,-5.630541229E-1,-5.315867472E-1,1.050093242E0
1.177485000E-1,-8.189810510E-1,-1.543936828E-1,-5.455580842E-1,9.960928644E-1
1.277575000E-1,-3.672628842E-1,1.680928320E-1,-7.514022946E-2,4.108324237E-1
1.377665000E-1,-5.984493658E-2,3.596905938E-1,3.740697742E-1,5.223858111E-1
1.477755000E-1,4.671238258E-2,4.660754201E-1,7.425782615E-1,8.779697138E-1
1.577845000E-1,1.798188382E-1,5.449420801E-1,4.350047779E-1,7.200873850E-1
1.677935000E-1,3.829252361E-1,6.262978998E-1,-8.007060170E-2,7.384389595E-1
1.778025000E-1,5.621787947E-1,5.151101705E-1,-7.731247008E-2,7.663946132E-1
1.878105000E-1,8.193070333E-1,1.536531329E-1,-2.446159279E-1,8.687406127E-1
1.978195000E-1,9.801567730E-1,-4.353252053E-4,-6.727069581E-1,1.188798612E0
2.078285000E-1,1.150839483E0,1.067283502E-1,-9.967339218E-1,1.526204759E0
2.178375000E-1,9.542562389E-1,3.926463783E-2,-8.017684561E-1,1.246988107E0
2.278465000E-1,8.505979693E-1,-3.290734032E-1,-7.290583295E-1,1.167618199E0
2.378555000E-1,9.294967890E-1,-1.161414903E0,-1.030958844E0,1.809896405E0
2.478645000E-1,9.690602195E-1,-1.295364966E0,-1.093945051E0,1.952886039E0
2.578735000E-1,3.426570699E-1,-3.296952546E-1,-1.029326302E0,1.133854252E0
2.678825000E-1,5.658606403E-1,3.073048040E-1,-1.482025924E0,1.615869842E0
2.778915000E-1,1.677011416E0,1.925950044E-1,-2.352479868E0,2.895448438E0
2.879005000E-1,1.417269180E0,-5.431425995E-1,-3.400464635E0,3.723817335E0
2.979085000E-1,1.895143696E0,5.043925166E-2,-3.319277215E0,3.822527302E0
3.079175000E-1,1.933416354E0,3.835580510E-1,-2.648294016E0,3.301314401E0
3.179265000E-1,1.222433230E0,-5.446579054E-1,-2.573613378E0,2.900772493E0
3.279355000E-1,1.239687340E0,-1.160207453E-1,-1.452955906E0,1.913469723E0
3.379445000E-1,2.086423954E0,9.384956539E-1,-3.808741790E-1,2.319268020E0
3.479535000E-1,2.560500412E0,1.085392621E0,-3.447740543E-1,2.802339853E0
3.579625000E-1,-2.215201570E-1,-2.896283203E0,-2.493441619E0,3.828156042E0
3.679715000E-1,5.047756554E-1,-3.292034745E0,-2.740709844E0,4.313210136E0
3.779805000E-1,-1.709690773E-1,-1.633128501E0,-3.038244243E0,3.453587585E0
3.879885000E-1,-1.056147480E0,-3.141173950E0,-2.874250309E0,4.386768301E0
3.979975000E-1,1.069916796E0,-4.033111149E0,-2.022638433E0,4.637000509E0
4.080065000E-1,1.436701232E0,-2.388531899E0,-1.381722202E0,3.111004871E0
4.180155000E-1,1.693417680E0,-1.882541485E0,-1.267917259E0,2.831826276E0
4.280245000E-1,1.601841804E0,-2.137497044E0,-1.158281381E0,2.911426890E0
4.380335000E-1,1.210907491E0,-2.234356171E0,-8.497705883E-1,2.679692987E0
4.480425000E-1,1.262247506E0,-2.635897919E0,-1.217636467E0,3.166048826E0
4.580515000E-1,8.569854677E-1,-2.698169596E0,-9.387570244E-1,2.982584117E0
4.680605000E-1,1.237580734E-1,-2.716589495E0,-1.075411717E0,2.924326402E0
4.780695000E-1,-5.773201597E-1,-2.940875531E0,-1.353325784E0,3.288394461E0
4.880785000E-1,-1.371791291E0,-2.995892860E0,-1.354903362E0,3.562716449E0
4.980865000E-1,-1.769049368E0,-3.023637314E0,-1.166186816E0,3.692141650E0
5.080955000E-1,-2.001981974E0,-2.911610802E0,-8.070385516E-1,3.624461409E0
5.181045000E-1,-2.190264072E0,-2.795200047E0,-1.975996363E-1,3.556605914E0
5.281135000E-1,-2.291358338E0,-2.743474408E0,4.332009119E-1,3.600644094E0
5.381225000E-1,-2.176451195E0,-2.641766769E0,9.770685661E-1,3.559569419E0
5.481315000E-1,-1.880709552E0,-2.420607385E0,1.645418179E0,3.479052963E0
5.581405000E-1,-1.722204400E0,-2.203246061E0,1.998162573E0,3.436995034E0
5.681495000E-1,-1.625116062E0,-2.221486742E0,2.242672666E0,3.550434656E0
5.781585000E-1,-1.809811478E0,-2.074149772E0,2.639733108E0,3.813883289E0
5.881675000E-1,-2.039504142E0,-1.931044431E0,3.035387294E0,4.135466813E0
5.981755000E-1,-1.869084118E0,-1.758715291E0,3.609480375E0,4.428871582E0
6.081845000E-1,-1.517445433E0,-1.503547039E0,4.273623501E0,4.777776907E0
6.181935000E-1,-1.054173460E0,-1.087466775E0,4.860316747E0,5.090829457E0
6.282025000E-1,-4.381429785E-1,-4.733101069E-1,5.133786346E0,5.174142825E0
6.382115000E-1,2.024539948E-1,2.279499746E-1,5.055837699E0,5.065021584E0
6.482205000E-1,8.766777205E-1,7.451082786E-1,4.963543493E0,5.095146139E0
6.582295000E-1,1.177701153E0,1.040560411E0,4.847149987E0,5.095547956E0
6.682385000E-1,1.234308633E0,1.137506150E0,4.701620976E0,4.992261796E0
6.782475000E-1,1.050349381E0,1.332754548E0,4.751728690E0,5.045631185E0
6.882565000E-1,1.022865129E0,1.245472868E0,5.128430296E0,5.375709538E0
6.982645000E-1,1.306086713E0,7.943739210E-1,5.404684339E0,5.616716588E0
7.082735000E-1,1.378798594E0,7.725124973E-1,5.438060830E0,5.663070432E0
7.182825000E-1,1.756490718E0,6.933189780E-1,5.277850045E0,5.605501935E0
7.282915000E-1,2.267998711E0,1.130435332E0,4.813409506E0,5.439725477E0
7.383005000E-1,2.972913303E0,1.606954025E0,4.121424863E0,5.329789644E0
7.483095000E-1,3.814275010E0,1.945591719E0,3.072833447E0,5.270325074E0
7.583185000E-1,4.538429865E0,2.309301396E0,1.911593814E0,5.439155218E0
7.683275000E-1,5.394510768E0,2.306586242E0,1.072493956E0,5.964170504E0
7.783365000E-1,5.733513620E0,2.483384116E0,7.604783428E-1,6.294338918E0
7.883455000E-1,5.719405459E0,2.314406893E0,8.473884326E-1,6.227852376E0
7.983535000E-1,5.543415377E0,2.309046458E0,6.908776192E-1,6.044705243E0
8.083625000E-1,4.819530664E0,2.533872192E0,2.217648630E-1,5.449547115E0
8.183715000E-1,4.358932039E0,2.353619783E0,-5.713438667E-1,4.986606904E0
8.283805000E-1,3.867596939E0,2.416622362E0,-9.897880143E-1,4.666695837E0
8.383895000E-1,3.004705784E0,2.433887143E0,-9.392913137E-1,3.979237571E0
8.483985000E-1,2.114383001E0,2.326459758E0,-9.203324479E-1,3.275674327E0
8.584075000E-1,1.342114332E0,2.412864064E0,-6.897983694E-1,2.845875202E0
8.684165000E-1,8.517908013E-1,2.698274846E0,-6.358116120E-1,2.900084675E0
8.784255000E-1,6.779109800E-1,3.093755955E0,-4.433660039E-1,3.198040434E0
8.884345000E-1,4.287231141E-1,3.171679166E0,9.863770410E-2,3.202043354E0
8.984425000E-1,4.583006698E-1,3.321429867E0,8.343128159E-1,3.455143086E0
9.084515000E-1,1.063762309E0,3.821599233E0,8.300181091E-1,4.052794222E0
9.184605000E-1,1.532269878E0,4.097717035E0,2.134215441E-1,4.380032492E0
9.284695000E-1,1.799037983E0,4.594976825E0,-5.328819054E-1,4.963296567E0
9.384785000E-1,2.237754573E0,5.356788626E0,-1.871720628E0,6.099677698E0
9.484875000E-1,2.115635474E0,5.802431828E0,-3.371690487E0,7.036506613E0
9.584965000E-1,1.778494375E0,5.870496342E0,-4.803311657E0,7.790864677E0
9.685055000E-1,1.203519534E0,5.450704849E0,-5.904309036E0,8.125238939E0
9.785145000E-1,5.105513889E-1,4.684914019E0,-6.073267255E0,7.687239897E0
9.885235000E-1,-7.931631088E-2,3.997103995E0,-4.342383249E0,5.902493008E0
9.985315000E-1,-7.695421118E-1,3.302429340E0,-1.863394192E0,3.869169488E0
1.008540500E0,-1.311158588E0,2.429252932E0,4.044974784E-1,2.789986534E0
1.018549500E0,-1.461146686E0,2.059345499E0,1.757290617E0,3.076349108E0
1.028558500E0,-1.387329097E0,2.248381888E0,1.348404182E0,2.966158623E0
1.038567500E0,-2.086484765E0,-9.647438049E-2,-3.609052359E0,4.169890276E0
1.048576500E0,-4.215432011E0,-3.809189687E0,-1.075224255E1,1.216102434E1
1.058585500E0,-3.625132787E0,-2.035634454E0,-9.654565805E0,1.051170948E1
1.068594500E0,-1.213751577E0,-1.277258478E0,-7.152342253E0,7.366178236E0
1.078603500E0,5.141140974E-1,-9.999557376E-1,-5.745892761E0,5.854870485E0
1.088612500E0,1.810033087E0,-1.132937209E0,-4.178410950E0,4.692428429E0
1.098619833E0,2.668090349E0,-3.020525426E-1,-2.068643010E0,3.389576043E0
1.108628833E0,2.711463826E0,-2.256357197E-1,2.206421391E0,3.503033387E0
1.118637833E0,2.034847419E0,-4.922203678E-1,5.213917758E0,5.618525011E0
1.128646833E0,2.046959342E0,-1.284813812E0,5.928224148E0,6.401923978E0
1.138655833E0,6.439848500E-1,-9.563856487E-1,5.948280097E0,6.058995470E0
1.148664833E0,-1.249210846E-1,-7.523283474E-1,1.866532101E0,2.016319742E0
1.158673833E0,-7.049017274E-1,-1.125085860E0,-1.133882704E0,1.745965241E0
1.168682833E0,-1.034453140E0,-9.430322161E-1,-3.300984201E-1,1.438182196E0
1.178691833E0,-1.461416243E0,-8.993532228E-1,9.895412618E-1,1.980849707E0
1.188700833E0,-1.623233258E0,-1.076602502E0,2.202627133E0,2.940327438E0
1.198708833E0,-5.061057508E-1,-1.595479449E0,2.103437598E0,2.688149444E0
1.208717833E0,5.684166044E-1,-1.355519659E0,2.978141883E-1,1.499741402E0
1.218726833E0,4.204563206E-1,-1.353566104E0,-1.623672384E0,2.155281125E0
1.228735833E0,2.484669042E-1,-1.255219299E0,-2.569660952E0,2.870621658E0
1.238744833E0,1.233743207E0,-9.894439057E-2,-4.049933296E0,4.234840256E0
1.248753833E0,4.402627696E0,4.630651565E0,-7.045287920E0,9.511159048E0
1.258762833E0,8.772307502E0,3.424156676E0,-3.296212288E0,9.977136027E0
1.268771833E0,5.322951373E0,1.317147306E0,-1.059790003E0,5.584965819E0
1.278780833E0,1.309424888E0,2.784133314E0,1.786470855E0,3.557733824E0
1.288789833E0,-5.204296750E-1,5.950404391E-1,6.412340274E0,6.460884457E0
1.298797833E0,-7.366749126E-1,-2.182715171E0,6.080337124E0,6.502110041E0
1.308806833E0,-1.727004379E-1,-1.062274777E0,2.736727306E0,2.940736216E0
1.318815833E0,2.774006814E-1,-1.526098142E0,-8.080287775E-1,1.748953168E0
1.328824833E0,-1.100827224E0,-2.573705764E0,-2.648590470E0,3.853675312E0
1.338833833E0,-1.875869812E0,-2.232756958E0,-1.633067690E0,3.342304783E0
1.348842833E0,2.284039963E0,1.230553258E0,-1.970661071E0,3.258006282E0
1.358851833E0,4.822355454E0,2.678425011E0,3.599023799E0,6.586504761E0
1.368860833E0,-3.696878123E0,2.558072794E-1,4.678411038E0,5.968238857E0
1.378869833E0,-6.137338121E0,4.990950854E-1,3.216955326E0,6.947288441E0
1.388878833E0,-5.741148330E0,1.744719542E0,3.992132400E0,7.207076490E0
1.398886833E0,-5.201305899E0,2.034264452E0,2.230508996E0,6.013899342E0
1.408895833E0,-4.664513376E0,9.228496011E-1,-3.883454880E0,6.139263655E0
1.418904833E0,-4.829685524E0,1.131492216E0,-1.870652341E0,5.301459900E0
1.428913833E0,-6.094762790E0,-7.270225482E-1,7.240259233E-1,6.180526578E0
1.438922833E0,-6.165467321E0,-1.239119429E0,4.423491731E-1,6.304290368E0
1.448931833E0,-5.189330217E0,-1.934444587E0,7.849387076E-1,5.593509876E0
1.458940833E0,-5.339896604E0,-2.716234569E0,-1.040658206E-1,5.991932549E0
1.468949833E0,-5.950737097E0,-2.552286243E0,-1.331977599E0,6.610567403E0
1.478958833E0,-6.187692588E0,-2.347116509E0,2.037208817E0,6.924356666E0
1.488967833E0,-5.173579572E0,-2.247589005E0,2.805668317E0,6.299948939E0
1.498975833E0,-3.902247539E0,-1.321079413E0,1.879686289E0,4.528355907E0
1.508984833E0,-7.070628583E-1,-9.739873758E-1,3.678123178E0,3.870036099E0
1.518993833E0,1.633692173E0,-1.182453185E0,4.252115103E0,4.706126698E0
1.529002833E0,1.707310957E0,-1.021577864E0,4.403270013E0,4.831906336E0
1.539011833E0,2.142424493E0,-1.713959826E0,4.459216465E0,5.235671158E0
1.549020833E0,3.276967932E0,-1.077944146E0,5.000973859E0,6.075378338E0
1.559029833E0,3.956391002E0,-2.539662105E-1,1.487122795E0,4.234272406E0
1.569038833E0,1.023734259E1,-6.527205902E-1,-1.563230885E0,1.037655618E1
1.579047833E0,1.211994605E1,-8.471697468E-1,-1.001884617E1,1.574763689E1
1.589056833E0,1.004942009E1,-1.211291068E0,-1.170471773E1,1.547444627E1
1.599065833E0,4.988686520E0,-1.689933032E-1,-4.723748009E0,6.872361107E0
1.609073833E0,3.317727118E0,-1.078021914E0,-5.756558959E-1,3.535650462E0
1.619082833E0,2.765471633E0,-1.820077434E0,1.592104436E0,3.673596569E0
1.629091833E0,2.522655478E0,-1.653604281E0,2.551823144E0,3.950949144E0
1.639100833E0,2.813536330E0,-8.892773008E-1,1.752062037E0,3.431693777E0
1.649109833E0,2.418380912E0,1.802995671E0,9.824234462E-1,3.172462049E0
1.659118833E0,1.677965536E0,2.672649423E0,7.302425368E-1,3.239116769E0
1.669127833E0,-7.225000924E-1,2.341906933E0,3.880294168E-1,2.481350699E0
1.679136833E0,-3.039855736E0,1.648834122E0,1.134899242E-1,3.460094915E0
1.689145833E0,-4.030547145E0,1.124772742E0,-1.046758313E-1,4.185854875E0
1.699154833E0,-4.587675115E0,6.748283279E-1,6.321025769E-1,4.679926271E0
1.709162833E0,-4.880315979E0,2.091741997E-1,1.544539822E0,5.123167103E0
1.719171833E0,-4.365392042E0,-2.052062792E-1,1.144446430E0,4.517578437E0
1.729180833E0,-3.042478797E0,-8.630080998E-2,2.222526670E-2,3.043783669E0
1.739189833E0,-4.734999222E-1,-2.046997349E0,-2.022547363E0,2.916350143E0
1.749198833E0,-6.783898669E-1,-6.480672006E0,-2.499411042E0,6.978995488E0
1.759207833E0,-2.423576163E0,-5.957895843E0,-2.283356570E0,6.825244430E0
1.769216833E0,-1.791738319E0,-3.124788882E0,-1.338150651E0,3.842561506E0
1.779225833E0,-2.213504416E-1,8.606990343E-1,4.600925490E-2,8.898964531E-1
1.789234833E0,1.123493371E0,3.353617913E0,7.003980558E-1,3.605488579E0
1.799243833E0,1.502682382E0,3.186018586E0,8.033838956E-1,3.613058878E0
1.809251833E0,1.657903739E0,1.918674354E0,4.448805790E-1,2.574465928E0
1.819260833E0,1.410070088E0,8.301128340E-1,1.380425289E-2,1.636329896E0
1.829269833E0,4.365741706E-1,-9.905007899E-2,-3.632076940E-1,5.764787538E-1
1.839278833E0,-7.804650030E-1,-1.320085532E0,2.597542231E-1,1.555385383E0
1.849287833E0,-6.132442832E-1,-1.061258531E0,9.334049217E-1,1.540643687E0
1.859296833E0,-2.637339842E-1,-2.102524263E-1,7.426981294E-1,8.156973756E-1
1.869305833E0,1.775439790E-1,-7.982911170E-2,9.254986091E-1,9.457495583E-1
1.879314833E0,2.073761809E-1,6.991574228E-2,1.236784490E0,1.255997200E0
1.889323833E0,8.332603902E-2,-5.517017537E-1,1.442745791E0,1.546878622E0
1.899332833E0,7.117610961E-2,-9.515396225E-1,1.633298070E0,1.891601512E0
1.909340833E0,-1.677250421E-1,-9.227216202E-1,3.535311368E-1,1.002263011E0
1.919349833E0,3.573233485E-3,-1.698446578E-1,-1.501249230E0,1.510830641E0
1.929358833E0,5.903857630E-1,1.040889755E0,-1.620483313E0,2.014441113E0
1.939367833E0,9.569094130E-1,2.662819669E0,-1.264249885E-1,2.832360763E0
1.949376833E0,1.162166417E0,1.472319780E1,3.677395785E-1,1.477357156E1
1.959385833E0,2.842992264E0,1.646574174E1,2.998302498E0,1.697625029E1
1.969394833E0,1.798172303E0,1.098613468E1,5.159184312E0,1.226970911E1
1.979403833E0,-9.321106406E-1,1.183648941E1,3.781782618E0,1.246086640E1
1.989412833E0,-2.977090554E0,1.113254429E1,3.103046011E0,1.193421573E1
1.999421833E0,-3.846438497E0,9.744902948E0,3.042693390E0,1.090945487E1
2.009429833E0,-4.330531527E0,8.200846837E0,3.197141744E0,9.809643596E0
2.019438833E0,-4.510577238E0,6.995475490E0,1.860040230E0,8.528876480E0
2.029447833E0,-4.299509417E0,5.558273737E0,4.424459445E-1,7.041018859E0
2.039456833E0,-4.496338390E0,3.211989579E0,1.266384119E0,5.669009147E0
2.049465833E0,-4.279776526E0,2.635947620E0,2.652758950E0,5.683470508E0
2.059474833E0,-3.824652064E0,3.424962714E0,3.109030636E0,6.002033364E0
2.069483833E0,-2.043019195E0,-3.977557338E0,2.805437937E0,5.278766127E0
2.079492833E0,-6.991948450E-1,-1.852646075E1,3.564127032E0,1.887913194E1
2.089501833E0,-1.401644835E-1,-3.179143312E1,5.164777758E0,3.220853607E1
2.099511875E0,3.849861749E0,-3.848951689E1,5.004724263E0,3.900399480E1
2.109519875E0,7.794661231E0,-3.032108760E1,3.431513350E0,3.149445000E1
2.119528875E0,8.549416319E0,-1.626731530E1,8.448166810E-2,1.837730132E1
2.129537875E0,7.935172162E0,-2.761315432E0,-7.013529938E0,1.094446994E1
2.139546875E0,6.911093152E0,4.170864533E0,-9.170057330E0,1.221676188E1
2.149555875E0,5.181962725E0,6.315244335E0,-7.511943676E0,1.109794335E1
2.159564875E0,3.156932196E0,5.373649072E0,-4.988857843E0,7.983171539E0
2.169573875E0,1.383611145E0,2.324760557E0,-1.971875830E0,3.347713509E0
2.179582875E0,3.237809421E-1,6.196920079E-1,2.137052071E-1,7.311102507E-1
2.189591875E0,5.992972121E-2,6.259684092E-1,8.542746985E-1,1.060760709E0
2.199600875E0,8.915542066E-4,1.284307589E0,8.854152149E-1,1.559938102E0
2.209609875E0,-1.393157601E-1,1.683047351E0,9.068986161E-1,1.916904370E0
2.219617875E0,8.689795688E-2,2.371254108E0,1.055510645E0,2.597017524E0
2.229626875E0,6.555705231E-1,3.127896093E0,1.365397945E0,3.475315558E0
2.239635875E0,8.681632975E-1,2.830216098E0,2.011012414E0,3.578826847E0
2.249644875E0,8.416596231E-1,1.730213916E0,2.728071088E0,3.338323378E0
2.259653875E0,8.493580672E-1,8.874629098E-1,2.886273354E0,3.136809433E0
2.269662875E0,4.875692001E-1,3.223470587E-1,2.639253636E0,2.703200160E0
2.279671875E0,5.294405267E-2,6.657932103E-2,2.218427771E0,2.220058030E0
2.289680875E0,-3.649251674E-1,2.078509748E-2,1.782880957E0,1.819963435E0
2.299689875E0,-7.981344116E-1,7.121908665E-3,1.370251134E0,1.585767143E0
2.309698875E0,-1.054104463E0,1.209701210E-1,9.118001908E-1,1.398981621E0
2.319706875E0,-1.200887702E0,1.837627852E-1,5.267750734E-1,1.324157095E0
2.329715875E0,-1.223755870E0,2.025259155E-1,2.422678323E-1,1.263838945E0
2.339724875E0,-1.201846353E0,1.054609662E-1,2.941661105E-2,1.206823106E0
2.349733875E0,-8.825826775E-1,1.257274157E-1,-2.034404200E-1,9.144110509E-1
2.359742875E0,-1.356135955E-1,1.961378324E-1,-4.497122794E-1,5.090208550E-1
2.369751875E0,6.700822891E-1,4.908152819E-2,-6.238464546E-1,9.168444086E-1
2.379760875E0,8.446753246E-1,-3.672981137E-1,-7.038777338E-1,1.159236030E0
2.389769875E0,-8.943842590E-1,-6.949304706E-1,-6.116051625E-1,1.287211108E0
2.399778875E0,-1.473448351E0,-2.376706052E-1,-6.359175928E-1,1.622321961E0
2.409787875E0,-3.220690235E-2,7.116470754E-2,-7.490657473E-1,7.531276080E-1
2.419795875E0,1.015947580E0,-6.529644191E-2,-7.641797765E-1,1.272942984E0
2.429804875E0,1.673390382E0,9.750232100E-3,-9.627836721E-1,1.930617216E0
2.439813875E0,1.738238196E0,6.656762660E-2,-1.206061611E0,2.116716297E0
2.449822875E0,1.629602338E0,1.240720689E-1,-1.334266784E0,2.109802244E0
2.459831875E0,1.655840695E0,1.192989868E-1,-1.412796937E0,2.179916475E0
2.469840875E0,1.640200270E0,5.738749802E-2,-1.642611516E0,2.322008364E0
2.479849875E0,1.531933079E0,-4.670171142E-2,-2.112599015E0,2.609995135E0
2.489858875E0,1.495021799E0,-9.955878675E-2,-2.758567241E0,3.139218908E0
2.499867875E0,1.660270692E0,-1.640535754E-1,-3.468482956E0,3.848868192E0
2.509876875E0,1.957404702E0,-3.588407010E-1,-4.028195395E0,4.492945354E0
2.519884875E0,2.320834152E0,-6.906239963E-1,-3.981493683E0,4.659991912E0
2.529893875E0,2.571278585E0,-1.063224950E0,-3.178906032E0,4.224614115E0
2.539902875E0,2.605972746E0,-1.284653159E0,-2.056216654E0,3.559417736E0
2.549911875E0,2.560778155E0,-1.547263893E0,-1.205611375E0,3.225695135E0
2.559920875E0,2.520222452E0,-2.046851753E0,-9.138063705E-1,3.372857155E0
2.569929875E0,2.511402512E0,-2.574612667E0,-1.308672206E0,3.827322289E0
2.579938875E0,2.530536940E0,-2.813498908E0,-2.169306482E0,4.361798244E0
2.589947875E0,2.804198912E0,-2.899928357E0,-3.062810735E0,5.064970445E0
2.599956875E0,3.511244813E0,-3.213571835E0,-3.355378509E0,5.823611338E0
2.609965875E0,4.312124785E0,-3.655506733E0,-2.850337536E0,6.331001004E0
2.619973875E0,4.590069842E0,-3.973909845E0,-2.106706191E0,6.426422923E0
2.629982875E0,4.108033277E0,-3.555424036E0,-1.762076563E0,5.711557694E0
2.639991875E0,3.110246272E0,-2.053222294E0,-2.302849871E0,4.380921272E0
2.650000875E0,1.793253186E0,-5.978988504E-1,-3.628094401E0,4.091003423E0
2.660009875E0,7.642103282E-1,3.361926806E-1,-5.016871853E0,5.085867295E0
2.670018875E0,6.490584791E-2,1.089642670E0,-4.437663043E0,4.569943895E0
2.680027875E0,-5.384310593E-1,1.574545248E0,-2.144889825E0,2.714710501E0
2.690036875E0,-9.213807075E-1,2.056589121E0,-6.886862290E-1,2.356435856E0
2.700045875E0,-1.119346526E0,2.407890422E0,-5.046083520E-1,2.702869312E0
2.710054875E0,-9.273887216E-1,2.406647304E0,-1.476041883E-1,2.583367586E0
2.720062875E0,-3.174568860E-1,2.098516581E0,9.706565094E-1,2.333821924E0
2.730071875E0,4.253684203E-1,1.551994876E0,2.063156714E0,2.616532441E0
2.740080875E0,1.138208328E0,7.069570237E-1,2.816504377E0,3.118974725E0
2.750089875E0,1.884714895E0,-2.953867167E-1,3.125278294E0,3.661525360E0
2.760098875E0,2.286802041E0,-9.980015981E-1,3.043312025E0,3.935380394E0
2.770107875E0,1.894173643E0,-1.318382823E0,2.711673156E0,3.560786200E0
2.780116875E0,1.261465441E0,-1.595778826E0,2.974226003E0,3.603307569E0
2.790125875E0,9.963268094E-1,-1.663241662E0,3.506979854E0,4.007236908E0
2.800134875E0,6.965824552E-1,-1.620469864E0,3.613295099E0,4.020827174E0
2.810143875E0,6.357035847E-1,-1.596920788E0,3.091392510E0,3.537086753E0
2.820151875E0,7.055074990E-1,-1.445451590E0,2.569680541E0,3.031555576E0
2.830160875E0,5.767026937E-1,-1.151725482E0,2.636840490E0,2.934618434E0
2.840169875E0,4.983710539E-1,-9.340517700E-1,2.710797243E0,2.910197263E0
2.850178875E0,5.162161714E-1,-7.203535795E-1,2.678553357E0,2.821353665E0
2.860187875E0,4.587728325E-1,-4.727292591E-1,2.703229777E0,2.782336552E0
2.870196875E0,3.436396945E-1,-1.992374414E-1,2.471977075E0,2.503688171E0
2.880205875E0,3.683307320E-2,3.138902307E-2,2.162767102E0,2.163308458E0
2.890214875E0,-4.975822645E-1,-2.134233713E-2,1.992887946E0,2.054177687E0
2.900223875E0,-3.461776784E-1,-2.622183859E-2,2.852235250E0,2.873286009E0
2.910232875E0,-1.725495797E-1,8.980270743E-2,2.972687016E0,2.979044474E0
2.920241875E0,-1.772791001E-1,2.195980310E-1,2.564853079E0,2.580333795E0
2.930249875E0,-2.440920174E-1,4.753260076E-1,2.290903132E0,2.352393013E0
2.940258875E0,-3.457034692E-1,7.027739257E-1,2.159170918E0,2.296828495E0
2.950267875E0,-4.581249610E-1,9.071165711E-1,2.330381778E0,2.542325350E0
2.960276875E0,-5.934497041E-1,1.117774209E0,2.521260917E0,2.821056247E0
2.970285875E0,-8.082597426E-1,1.363554318E0,2.454351228E0,2.921712536E0
2.980294875E0,-1.092609547E0,1.472323054E0,2.223566451E0,2.881974767E0
2.990303875E0,-1.501920783E0,1.435365143E0,2.001037649E0,2.884474095E0
3.000312875E0,-1.965171705E0,1.364617926E0,1.747875723E0,2.962963290E0
3.010321875E0,-2.470392188E0,1.201449620E0,1.572399319E0,3.165242229E0
3.020330875E0,-3.170921952E0,1.003104463E0,1.569328069E0,3.677465864E0
3.030338875E0,-3.956390125E0,8.704843497E-1,1.541463017E0,4.334382777E0
3.040347875E0,-4.616486685E0,8.627034599E-1,1.473177625E0,4.922038083E0
3.050356875E0,-5.124760584E0,1.084577227E0,1.317219519E0,5.401346690E0
3.060365875E0,-5.272068903E0,1.376429887E0,1.238491877E0,5.587766269E0
3.070374875E0,-5.079997809E0,1.636182502E0,1.188100572E0,5.467636957E0
3.080383875E0,-4.673277183E0,1.683177744E0,1.179425497E0,5.105257236E0
3.090392875E0,-4.141724934E0,1.677032905E0,1.230106823E0,4.634596810E0
3.100401750E0,-3.666000731E0,1.497443862E0,9.164750397E-1,4.064704907E0
3.110410750E0,-3.072073309E0,1.164241447E0,3.335224034E-1,3.302170462E0
3.120419750E0,-2.514988609E0,8.515914112E-1,-9.726170808E-2,2.657035091E0
3.130427750E0,-1.907552657E0,5.778025550E-1,-4.322147790E-1,2.039466241E0
3.140436750E0,-1.086608550E0,2.699560064E-1,-8.848462808E-1,1.427076497E0
3.150445750E0,-1.481275141E-1,4.184676826E-2,-1.345395059E0,1.354171620E0
3.160454750E0,1.036765714E0,-1.767391098E-1,-1.977194896E0,2.239513232E0
3.170463750E0,2.317100705E0,-3.511527818E-1,-2.998688414E0,3.805837117E0
3.180472750E0,3.535644367E0,-5.528250039E-1,-4.138179767E0,5.470916592E0
3.190481750E0,5.070757454E0,-9.858288646E-1,-5.225425079E0,7.347755233E0
3.200490750E0,6.048769176E0,-1.570645155E0,-6.127293774E0,8.752043404E0
3.210499750E0,5.801082290E0,-2.135322465E0,-5.969312532E0,8.593302617E0
3.220508750E0,4.652250887E0,-2.185696228E0,-5.160240319E0,7.283459787E0
3.230516750E0,2.937015492E0,-1.577829629E0,-4.235510180E0,5.390283186E0
3.240525750E0,1.282379470E0,-2.976338017E-1,-2.889511542E0,3.175273207E0
3.250534750E0,4.759358722E-1,1.269861458E0,-1.373422079E0,1.930116909E0
3.260543750E0,1.711137959E-1,2.603372782E0,-1.691671117E-1,2.614468834E0
3.270552750E0,5.752198398E-2,3.156394252E0,6.349551411E-1,3.220139979E0
3.280561750E0,-5.498195350E-2,2.613282058E0,1.361278728E0,2.947091092E0
3.290570750E0,-1.615325484E-1,9.336009496E-1,1.995489811E0,2.209000471E0
3.300579750E0,-1.836706915E-1,-1.599945552E0,2.463662335E0,2.943330221E0
3.310588750E0,-1.687447965E-2,-4.388268689E0,3.096308849E0,5.370690395E0
3.320597750E0,2.248067307E-1,-6.617972231E0,4.039961747E0,7.756892769E0
3.330605750E0,2.106140766E-1,-7.934155331E0,4.498012741E0,9.122899634E0
3.340614750E0,-1.975174829E-1,-8.763346644E0,4.524671366E0,9.864477104E0
3.350623750E0,-7.979361910E-1,-8.901780059E0,4.638140094E0,1.006929660E1
3.360632750E0,-1.747235453E0,-5.891670279E0,3.595746435E0,7.119972109E0
3.370641750E0,-2.996788069E0,-1.014962032E0,1.687855808E-1,3.168497314E0
3.380650750E0,-3.839946333E0,2.235774706E0,-3.812055992E0,5.854540739E0
3.390659750E0,-4.532654570E0,3.760845492E0,-5.869866596E0,8.315302167E0
3.400668750E0,-5.041566399E0,4.352165056E0,-5.078024958E0,8.375265364E0
3.410677750E0,-5.244844267E0,4.915279990E0,-2.274256986E0,7.539271424E0
3.420686750E0,-4.954329450E0,4.969134600E0,7.402633488E-1,7.055896031E0
3.430694750E0,-4.260686536E0,4.179530107E0,2.516178517E0,6.477119422E0
3.440703750E0,-3.581284224E0,2.523514434E0,3.297006340E0,5.483062338E0
3.450712750E0,-2.734998869E0,1.896754897E-1,3.898778386E0,4.766200636E0
3.460721750E0,-1.957412742E0,-2.052025954E0,4.355006218E0,5.196956255E0
3.470730750E0,-9.959875247E-1,-3.372662294E0,4.729070145E0,5.893296746E0
3.480739750E0,-1.462286308E-1,-3.863748887E0,5.075817050E0,6.380741101E0
3.490748750E0,6.640276435E-1,-3.278502241E0,5.044727404E0,6.052997955E0
3.500757750E0,1.889766304E0,-1.804682300E0,3.600349363E0,4.448663892E0
3.510766750E0,2.480673054E0,-4.662142915E-1,2.240796880E0,3.375242987E0
3.520775750E0,2.607421102E0,5.040650725E-1,1.391126279E0,2.997992449E0
3.530783750E0,2.555098754E0,1.099830859E0,8.840019429E-1,2.918838296E0
3.540792750E0,2.407451004E0,1.362461473E0,2.476097023E-1,2.777306639E0
3.550801750E0,2.241562572E0,1.394177356E0,-3.360184336E-1,2.661060250E0
3.560810750E0,1.959734087E0,1.089017018E0,-9.466583669E-1,2.433655239E0
3.570819750E0,1.320346026E0,8.142528462E-1,-1.602934649E0,2.230632380E0
3.580828750E0,2.983886772E-1,4.148225284E-1,-2.073092303E0,2.135140564E0
3.590837750E0,-7.892092216E-1,4.209702909E-2,-2.252256253E0,2.386897900E0
3.600846750E0,-1.702592838E0,-1.189463997E-1,-2.209834703E0,2.792192693E0
3.610855750E0,-2.280616126E0,-2.288483262E-1,-1.910533860E0,2.983910371E0
3.620864750E0,-2.476338513E0,-4.567505729E-1,-1.410404549E0,2.886193776E0
3.630872750E0,-2.447588339E0,-4.114878613E-1,-8.033436960E-1,2.608710799E0
3.640881750E0,-2.095882703E0,-8.047172070E-2,-7.560910307E-2,2.098789351E0
3.650890750E0,-1.513835946E0,1.406220281E-1,4.684854231E-1,1.590896734E0
3.660899750E0,-9.358053499E-1,3.461925888E-1,8.206591288E-1,1.291921966E0
3.670908750E0,-2.245573470E-1,4.665581077E-1,1.372939099E0,1.467332355E0
3.680917750E0,4.106850386E-1,5.974813592E-1,1.863662580E0,1.999721077E0
3.690926750E0,8.446054503E-1,7.286303133E-1,1.871452825E0,2.178668441E0
3.700935750E0,1.018308978E0,8.571836883E-1,1.410083390E0,1.939085408E0
3.710944750E0,1.402187164E0,9.557776845E-1,9.312603092E-1,1.935687369E0
3.720953750E0,1.640648021E0,9.752424806E-1,5.016817474E-1,1.973450886E0
3.730961750E0,1.630054620E0,9.783368272E-1,5.817687213E-2,1.902000410E0
3.740970750E0,1.505520913E0,1.021908524E0,-3.514620996E-1,1.853217704E0
3.750979750E0,1.238330932E0,9.999686015E-1,-6.279267879E-1,1.711050190E0
3.760988750E0,8.471507433E-1,1.021009807E0,-7.939992607E-1,1.546143665E0
3.770997750E0,4.937046835E-1,9.354767364E-1,-9.557570730E-1,1.425599040E0
3.781006750E0,2.330358097E-1,6.970150030E-1,-1.162314790E0,1.375176815E0
3.791015750E0,-2.456415296E-3,4.247522700E-1,-1.410556722E0,1.473122803E0
3.801024750E0,-1.348943880E-1,2.408415502E-1,-1.678784146E0,1.701328115E0
3.811033750E0,9.965701997E-3,-1.279897034E-2,-1.910688665E0,1.910757521E0
3.821042750E0,3.722547984E-1,-1.092218953E-1,-2.057027370E0,2.093290390E0
3.831051750E0,9.855522913E-1,2.987868726E-2,-2.148324626E0,2.363790336E0
3.841059750E0,1.791424908E0,2.204347676E-1,-2.299762103E0,2.923474032E0
3.851068750E0,2.416373855E0,4.024474812E-1,-2.429415485E0,3.450055968E0
3.861077750E0,2.651841229E0,5.006538069E-1,-2.584655845E0,3.736758217E0
3.871086750E0,2.716257373E0,4.675895566E-1,-2.695251836E0,3.855006688E0
3.881095750E0,2.929688931E0,2.392113465E-1,-2.630542454E0,3.944623290E0
3.891104750E0,3.171245303E0,-1.126793540E-1,-2.321355431E0,3.931689770E0
3.901113750E0,3.291222859E0,-4.445433408E-1,-1.770635425E0,3.763630760E0
3.911122750E0,3.199256389E0,-7.529827970E-1,-1.200142767E0,3.498938010E0
3.921131750E0,2.854191436E0,-1.174852390E0,-9.579664434E-1,3.231777622E0
3.931140750E0,2.043564595E0,-1.480641303E0,-1.311704133E0,2.844120717E0
3.941148750E0,8.954026978E-1,-1.710590660E0,-2.376677547E0,3.062101004E0
3.951157750E0,2.424811095E-2,-2.206877182E0,-3.858461834E0,4.445067220E0
3.961166750E0,-2.628957859E-1,-3.273326286E0,-5.100422133E0,6.066142523E0
3.971175750E0,1.839262149E-1,-4.696825674E0,-5.331775407E0,7.107870937E0
3.981184750E0,1.265003153E0,-5.516520524E0,-4.578986152E0,7.280064962E0
3.991193750E0,2.449725496E0,-4.759756917E0,-3.602511371E0,6.452482398E0
4.001202750E0,3.510194069E0,-3.113452300E0,-2.984036753E0,5.560532616E0
4.011211750E0,4.656280496E0,-1.951397127E0,-2.926225332E0,5.835382892E0
4.021220750E0,5.623000075E0,-1.434273468E0,-3.180294161E0,6.617366635E0
4.031229750E0,5.971169608E0,-1.110866894E0,-3.485476719E0,7.002673753E0
4.041237750E0,5.425512121E0,-8.509417856E-1,-3.909243148E0,6.741102705E0
4.051246750E0,3.851663569E0,-8.494098151E-1,-3.697228956E0,5.406136442E0
4.061255750E0,1.546486506E0,-7.178264129E-1,-2.704789229E0,3.197308250E0
4.071264750E0,-6.749467340E-1,-4.589456177E-1,-9.464736680E-1,1.249798615E0
4.081273750E0,-2.069754127E0,-4.473342168E-1,1.161689723E0,2.415266664E0
4.091282750E0,-2.358208385E0,-5.675933164E-1,2.510269321E0,3.490667705E0
4.101294208E0,-2.356900655E0,-1.355063576E0,5.237308960E0,5.900896808E0
4.111303208E0,-2.378167856E0,-2.081902887E0,5.952017637E0,6.739177690E0
4.121312208E0,-2.479018292E0,-2.447646226E0,5.187712877E0,6.248909396E0
4.131321208E0,-2.395083851E0,-2.461580141E0,2.560478193E0,4.283906163E0
4.141329208E0,-6.922270104E-1,-1.642950069E0,7.188661209E-1,1.922298537E0
4.151338208E0,1.593883452E0,-1.291172805E0,1.170096922E0,2.361507670E0
4.161347208E0,2.910094911E0,-9.112809581E-1,2.358452214E0,3.855046332E0
4.171356208E0,3.830946591E0,-3.082067370E-2,3.027383040E0,4.882842387E0
4.181365208E0,4.069767344E0,5.702374274E-1,2.714828314E0,4.925288797E0
4.191374208E0,2.237754281E0,5.111016119E-1,2.455456060E0,3.361254757E0
4.201383208E0,6.950550163E-1,-2.144103813E-1,4.364599160E0,4.424793680E0
4.211392208E0,2.367023063E-1,-3.556545532E-1,5.711936810E0,5.727891433E0
4.221401208E0,2.124147266E-2,-2.999674255E-1,6.422885728E0,6.429921674E0
4.231410208E0,-1.906613302E-1,-1.380632865E-1,5.656478308E0,5.661374397E0
4.241419208E0,-7.561113498E-1,7.239086866E-2,4.466373749E0,4.530500996E0
4.251427208E0,-1.332375210E0,2.960252327E-1,3.138029610E0,3.422000069E0
4.261436208E0,-1.756650639E0,3.738195133E-1,2.075226098E0,2.744471872E0
4.271445208E0,-1.969014495E0,5.861441928E-1,1.790223305E0,2.724973868E0
4.281454208E0,-2.129638386E0,7.482500607E-1,1.995312202E0,3.012724447E0
4.291463208E0,-2.203223256E0,8.796171159E-1,2.574500400E0,3.500852939E0
4.301472208E0,-2.227224030E0,1.061605271E0,3.295545413E0,4.116813355E0
4.311481208E0,-2.229474916E0,1.154830939E0,3.841605481E0,4.589349144E0
4.321490208E0,-2.318273072E0,1.226184511E0,4.086670767E0,4.855800289E0
4.331499208E0,-2.457991413E0,1.379597908E0,3.847113850E0,4.769202989E0
4.341507208E0,-2.538966871E0,1.493595809E0,3.271738767E0,4.402437481E0
4.351516208E0,-2.634175037E0,1.491418891E0,2.873154249E0,4.173514559E0
4.361525208E0,-3.067399922E0,1.421459295E0,2.671886947E0,4.309114603E0
4.371534208E0,-3.771139808E0,1.413998832E0,2.526112060E0,4.754169779E0
4.381543208E0,-4.545119664E0,1.511343863E0,2.189972881E0,5.266711901E0
4.391552208E0,-5.053439755E0,1.675814930E0,1.818553065E0,5.626077167E0
4.401561208E0,-5.191672027E0,1.939061256E0,1.646846069E0,5.781480689E0
4.411570208E0,-5.062381318E0,2.186698440E0,1.521527959E0,5.720524626E0
4.421579208E0,-4.658519687E0,2.171807336E0,1.398549611E0,5.326771424E0
4.431588208E0,-3.951098687E0,2.018554738E0,1.197871416E0,4.595719747E0
4.441597208E0,-3.396800477E0,1.918082616E0,9.162771115E-1,4.007100966E0
4.451605208E0,-2.978646205E0,1.883606848E0,6.343968782E-1,3.580889187E0
4.461614208E0,-2.677769246E0,1.742640418E0,2.666070136E-1,3.205982386E0
4.471623208E0,-2.330081231E0,1.401433750E0,-3.774778238E-1,2.745138359E0
4.481632208E0,-1.733727508E0,7.868294048E-1,-1.215950568E0,2.259081089E0
4.491641208E0,-8.364327970E-1,2.488633454E-2,-2.082111633E0,2.243975937E0
4.501650208E0,7.475159428E-1,-7.656466967E-1,-3.175309410E0,3.350758839E0
4.511659208E0,2.627038510E0,-1.671676270E0,-4.568687159E0,5.528900003E0
4.521668208E0,4.335484996E0,-2.634648369E0,-5.809611039E0,7.712936056E0
4.531677208E0,5.857756428E0,-3.356534504E0,-6.675570813E0,9.494360428E0
4.541686208E0,7.034872860E0,-3.271417755E0,-7.403772526E0,1.072415302E1
4.551694208E0,7.521597430E0,-2.559304072E0,-7.166409484E0,1.069962103E1
4.561703208E0,6.968135079E0,-1.637847204E0,-5.162084531E0,8.825223320E0
4.571712208E0,5.526753151E0,-4.325471932E-1,-2.338241898E0,6.016599758E0
4.581721208E0,4.291865937E0,1.107445688E0,-7.856739950E-1,4.501536715E0
4.591730208E0,3.781727946E0,2.609403600E0,-8.180099747E-1,4.666861228E0
4.601739208E0,3.532506166E0,4.022963306E0,-8.473504257E-1,5.420409239E0
4.611748208E0,3.370381295E0,4.650682957E0,-1.583950786E-1,5.745729809E0
4.621757208E0,2.882340225E0,4.150524994E0,1.251517134E0,5.205865733E0
4.631766208E0,1.781194912E0,2.686306180E0,3.104123068E0,4.474871644E0
4.641775208E0,1.032552503E0,2.801219755E-1,4.150422667E0,4.286098612E0
4.651783208E0,7.285370502E-1,-2.739356214E0,4.748486409E0,5.530186423E0
4.661792208E0,7.859941301E-1,-4.940737597E0,4.853511758E0,6.970312128E0
4.671801208E0,7.769595972E-1,-6.695575308E0,4.721148337E0,8.229437194E0
4.681810208E0,4.624168172E-1,-9.016962022E0,5.012193496E0,1.032673797E1
4.691819208E0,-3.759233415E-1,-1.121377147E1,5.316948037E0,1.241611555E1
4.701828208E0,-1.780235384E0,-1.194189950E1,5.303125219E0,1.318716569E1
4.711837208E0,-3.951015364E0,-8.597428976E0,3.907882793E-1,9.469900891E0
4.721846208E0,-6.735864378E0,-1.774358055E0,-1.235307688E1,1.418163333E1
4.731855208E0,-8.972097505E0,2.635131349E0,-1.502632213E1,1.769838433E1
4.741864208E0,-8.360318534E0,3.728153125E0,-7.671242881E0,1.194328343E1
4.751873208E0,-6.224570977E0,3.707120106E0,-4.077836502E-1,7.256329019E0
4.761881208E0,-4.503051286E0,3.998392137E0,2.195559311E0,6.409765304E0
4.771890208E0,-3.992266301E0,4.068895524E0,3.323915226E0,6.598675128E0
4.781899208E0,-3.129004725E0,3.316773437E0,4.948731326E0,6.729160300E0
4.791908208E0,-1.936585253E0,1.605555956E0,7.470219115E0,7.882407373E0
4.801917208E0,-1.729979150E0,-1.656709152E-1,1.015197324E1,1.029965219E1
4.811926208E0,-1.379428631E0,-1.881256267E0,1.108809843E1,1.133083736E1
4.821935208E0,-1.516121623E-1,-2.849197329E0,1.042624274E1,1.080959987E1
4.831944208E0,1.052811643E-1,-2.415130445E0,8.766386611E0,9.093595186E0
4.841953208E0,4.938616812E-2,-1.350399252E0,6.700374702E0,6.835278947E0
4.851962208E0,2.607633063E-1,-3.441700369E-1,5.016214042E0,5.034764526E0
4.861970208E0,2.762733382E-1,4.506092423E-1,3.613568748E0,3.652020639E0
4.871979208E0,3.258089027E-1,7.661273378E-1,2.690784563E0,2.816633470E0
4.881988208E0,3.505037409E-1,8.295783985E-1,2.305343124E0,2.475007093E0
4.891997208E0,1.114198637E-1,9.095566142E-1,3.113073986E0,3.245140561E0
4.902006208E0,8.657369953E-1,4.896335596E-1,1.338293177E0,1.667414224E0
4.912015208E0,1.768583637E0,-3.733739555E-2,-2.748849753E0,3.268861748E0
4.922024208E0,1.757406392E0,-3.928668183E-1,-1.067157085E1,1.082244178E1
4.932033208E0,1.065125587E0,-7.540925986E-1,-1.633969097E1,1.639172502E1
4.942042208E0,5.939820930E-1,-3.779833156E-1,-1.060678838E1,1.063012916E1
4.952051208E0,6.824329242E-1,2.420805752E-2,-4.883030257E0,4.930546137E0
4.962059208E0,5.026158401E-1,1.938439697E-1,-1.879636003E0,1.955308076E0
4.972068208E0,2.075989598E-1,6.081519431E-1,6.442293368E-1,9.099327186E-1
4.982077208E0,1.935311437E-1,8.959489739E-1,2.511014841E0,2.673083313E0
4.992086208E0,4.179195061E-1,1.122587637E0,3.367143692E0,3.573865744E0
5.002095208E0,4.997235149E-1,1.346550615E0,3.423338358E0,3.712434196E0
5.012104208E0,4.577881613E-1,1.488668945E0,3.063721147E0,3.436872487E0
5.022113208E0,4.251633292E-1,1.657614301E0,2.794856815E0,3.277144130E0
5.032122208E0,4.092413610E-1,1.632094713E0,2.667649469E0,3.153976115E0
5.042131208E0,3.459592849E-1,1.402451166E0,2.429597041E0,2.826570162E0
5.052140208E0,5.385887879E-1,1.083292009E0,1.835443917E0,2.198284293E0
5.062148208E0,8.675537252E-1,8.738120002E-1,1.005763777E0,1.589892340E0
5.072157208E0,1.059746734E0,6.411080199E-1,-1.637353407E-1,1.249356592E0
5.082166208E0,1.270433023E0,2.344347560E-1,-1.473096641E0,1.959329843E0
5.092175208E0,1.561303643E0,-2.042771566E-1,-2.830683875E0,3.239161840E0
5.102180833E0,1.934791327E0,-4.457899672E-1,-4.126052057E0,4.578913818E0
5.112189833E0,2.203059242E0,-4.508331907E-1,-5.299110521E0,5.756500057E0
5.122198833E0,2.131033240E0,-2.922034925E-1,-6.196571000E0,6.559281798E0
5.132207833E0,1.727622722E0,-4.642923117E-2,-6.511797320E0,6.737235358E0
5.142216833E0,1.546824768E0,8.829354107E-2,-6.039539931E0,6.235102661E0
5.152225833E0,1.663184798E0,3.477274829E-1,-4.890571411E0,5.177333947E0
5.162234833E0,1.748067219E0,5.968486905E-1,-3.272051008E0,3.757430660E0
5.172242833E0,2.035323967E0,6.361261922E-1,-1.500540255E0,2.607454936E0
5.182251833E0,2.752998353E0,5.511591321E-1,-5.632695928E-2,2.808193199E0
5.192260833E0,3.500459916E0,3.064929181E-1,9.153360021E-1,3.631115191E0
5.202269833E0,3.877461192E0,-1.678981197E-1,1.505613007E0,4.162903506E0
5.212278833E0,4.005315240E0,-9.011512417E-1,1.665710356E0,4.430486962E0
5.222287833E0,3.798870521E0,-1.808465449E0,9.416699611E-1,4.311462261E0
5.232296833E0,3.009579438E0,-2.663569867E0,-6.741461040E-1,4.075125250E0
5.242305833E0,2.099317650E0,-3.646701996E0,-2.910397797E0,5.116247196E0
5.252314833E0,1.625459439E0,-4.957586349E0,-5.717292860E0,7.739975351E0
5.262323833E0,2.139031500E0,-6.236478247E0,-7.747289429E0,1.017298433E1
5.272331833E0,3.760642594E0,-6.644430297E0,-6.419728816E0,9.975159385E0
5.282340833E0,4.951567225E0,-6.089320201E0,-2.591836225E0,8.265316299E0
5.292349833E0,5.219752695E0,-5.360527335E0,8.595363155E-2,7.482543654E0
5.302358833E0,5.063539651E0,-4.765884215E0,-1.421130681E-1,6.955090385E0
5.312367833E0,3.235554150E0,-3.635160761E0,-3.314086057E0,5.887815453E0
5.322376833E0,1.060310698E-1,-2.195867459E0,-6.623458089E0,6.978773068E0
5.332385833E0,-2.224032328E0,-1.227541650E0,-5.807681458E0,6.338954347E0
5.342394833E0,-2.811920452E0,-8.533631176E-1,-1.249136002E0,3.193033979E0
5.352403833E0,-3.457360674E0,-3.888053423E-1,2.551170595E0,4.314276745E0
5.362412833E0,-4.229408903E0,-5.210453868E-2,4.324145198E0,6.048871485E0
5.372421833E0,-4.452168231E0,2.442832214E-1,4.271718478E0,6.174872874E0
5.382429833E0,-3.763389908E0,6.586186767E-2,3.587990688E0,5.200107553E0
5.392438833E0,-3.194110840E0,-3.766349477E-1,2.620422678E0,4.148591683E0
5.402447833E0,-3.232055176E0,-9.467425668E-1,2.492780299E0,4.190042454E0
5.412456833E0,-2.245465297E0,-1.713352885E0,2.427027044E0,3.723996882E0
5.422465833E0,-6.120093513E-1,-1.680474576E0,2.572985387E0,3.133497095E0
5.432474833E0,4.352512380E-1,-1.331196996E0,3.151082057E0,3.448310776E0
5.442483833E0,1.210254357E0,-1.053541376E0,3.496235011E0,3.846859016E0
5.452492833E0,1.783588470E0,-1.040669900E0,3.494779931E0,4.059269446E0
5.462501833E0,2.002767840E0,-9.897915226E-1,3.579244423E0,4.219212832E0
5.472510833E0,1.819539198E0,-5.799917525E-1,3.893900639E0,4.337000751E0
5.482518833E0,1.135529280E0,-6.867437840E-2,4.184451708E0,4.336332438E0
5.492527833E0,-7.683504492E-2,-1.153012455E-2,4.317594855E0,4.318293865E0
5.502536833E0,-1.010766362E0,-4.012242436E-2,4.642683088E0,4.751606540E0
5.512545833E0,-1.897969071E0,-9.054062605E-2,4.160278442E0,4.573663839E0
5.522554833E0,-2.717664506E0,-3.089756459E-1,3.982416082E0,4.831232158E0
5.532563833E0,-2.406481828E0,-1.412640524E-1,2.476322726E0,3.455905752E0
5.542572833E0,-2.426604144E0,-6.534789741E-2,2.419504747E0,3.427343175E0
5.552581833E0,-2.407041407E0,-1.331586421E-1,3.017286361E0,3.862071535E0
5.562590833E0,-2.220117909E0,1.006557244E-1,3.419257294E0,4.078035746E0
5.572599833E0,-2.004522882E0,5.009648788E-1,3.630685595E0,4.177434103E0
5.582608833E0,-1.915141466E0,8.819524938E-1,3.866709917E0,4.404208512E0
5.592616833E0,-2.139699690E0,1.259475049E0,4.258434481E0,4.929387020E0
5.602625833E0,-2.593529287E0,1.646978216E0,4.369867501E0,5.341785599E0
5.612634833E0,-3.154887132E0,2.029061015E0,4.115862992E0,5.568727825E0
5.622643833E0,-3.826002478E0,2.448681768E0,3.888703341E0,5.979661449E0
5.632652833E0,-4.253428388E0,2.802280440E0,3.809060171E0,6.360296227E0
5.642661833E0,-4.412143748E0,3.005573511E0,3.803378724E0,6.554858831E0
5.652670833E0,-4.522048598E0,3.125394069E0,3.564956459E0,6.551788013E0
5.662679833E0,-4.721160616E0,3.317559303E0,3.153307507E0,6.575629668E0
5.672688833E0,-4.846762902E0,3.571835416E0,2.842913619E0,6.658173677E0
5.682697833E0,-4.529868371E0,3.480863850E0,2.780346657E0,6.353459541E0
5.692705833E0,-4.038358440E0,3.214074696E0,2.646084938E0,5.800032805E0
5.702714833E0,-3.609380972E0,2.862906126E0,2.278400616E0,5.139549772E0
5.712723833E0,-2.850170891E0,2.345343926E0,1.533306005E0,3.996891235E0
5.722732833E0,-1.998413711E0,1.758700381E0,7.328680828E-1,2.761119341E0
5.732741833E0,-1.177868384E0,1.307245046E0,-1.700927259E-1,1.767822128E0
5.742750833E0,-1.717935348E-1,8.807216549E-1,-1.258966195E0,1.546020547E0
5.752759833E0,1.427399773E0,2.898757160E-1,-2.389758060E0,2.798649966E0
5.762768833E0,3.121799493E0,-7.941559660E-1,-4.259668244E0,5.340513957E0
5.772777833E0,4.808037962E0,-2.316599599E0,-7.799872270E0,9.451024821E0
5.782786833E0,6.369625779E0,-4.239745318E0,-1.151069542E1,1.382185523E1
5.792794833E0,7.753995016E0,-6.176547795E0,-1.188619776E1,1.547759279E1
5.802803833E0,8.325636359E0,-6.927978156E0,-1.051343174E1,1.509454700E1
5.812812833E0,6.804603660E0,-5.449695620E0,-9.742181654E0,1.307332845E1
5.822821833E0,4.354065401E0,-3.163783379E0,-7.406763961E0,9.155739356E0
5.832830833E0,2.330058427E0,-7.481980205E-1,-3.821417384E0,4.537863305E0
5.842839833E0,1.799870626E0,1.740171139E0,-9.294760314E-1,2.670515972E0
5.852848833E0,1.400078658E0,4.427270787E0,6.655745244E-1,4.690835354E0
5.862857833E0,7.886771250E-1,5.931781594E0,2.201453012E0,6.376083425E0
5.872866833E0,4.182773557E-1,5.914888403E0,4.693025569E0,7.562099560E0
5.882875833E0,-4.911105663E-2,4.331722605E0,6.731762556E0,8.005177058E0
5.892883833E0,-5.964718375E-1,1.295417299E0,6.877251806E0,7.023565835E0
5.902892833E0,-4.843880224E-1,-2.544369698E0,6.548575137E0,7.042179012E0
5.912901833E0,-2.086140364E-2,-5.647976457E0,5.828044971E0,8.115798263E0
5.922910833E0,-3.354284495E-1,-7.946564877E0,4.918501221E0,9.351580607E0
5.932919833E0,-5.473885551E-1,-1.029043764E1,4.726013221E0,1.133701645E1
5.942928833E0,-6.543320829E-1,-1.285042818E1,5.129551792E0,1.385185751E1
5.952937833E0,-1.045963092E0,-1.462384308E1,4.669647231E0,1.538689151E1
5.962946833E0,-2.327741760E0,-9.627513662E0,-5.233289584E0,1.120244263E1
5.972955833E0,-5.197837915E0,-1.992936916E0,-1.906107167E1,1.985733542E1
5.982964833E0,-7.555913569E0,2.697522894E0,-1.742833026E1,1.918632730E1
5.992973833E0,-7.537946244E0,4.080642580E0,-7.069624032E0,1.111088932E1
6.002981833E0,-6.745504097E0,4.435118920E0,-5.102397323E-1,8.089032695E0
6.012990833E0,-5.580768560E0,4.685049382E0,2.736744847E0,7.783600567E0
6.022999833E0,-5.069863999E0,5.109574780E0,4.044714364E0,8.256572515E0
6.033008833E0,-4.660020668E0,4.745087423E0,4.719514625E0,8.155088324E0
6.043017833E0,-3.549149973E0,3.249642139E0,7.125673102E0,8.598363607E0
6.053026833E0,-3.072826723E0,7.554672790E-1,9.773364855E0,1.027286014E1
6.063035833E0,-2.482001542E0,-1.919835611E0,1.085637444E1,1.130075070E1
6.073044833E0,3.266143566E-1,-4.176167373E0,1.022516518E1,1.104993456E1
6.083053833E0,1.168443841E0,-4.555260490E0,9.115166008E0,1.025679826E1
6.093062833E0,3.971551663E-1,-2.519245382E0,7.970647219E0,8.368724312E0
6.103070958E0,1.012574029E-1,-5.168003082E-1,6.676827965E0,6.697564281E0
6.113079958E0,3.243052912E-1,4.884307873E-1,4.918058002E0,4.952881289E0
6.123088958E0,5.654564515E-1,8.325452757E-1,3.476459727E0,3.619205005E0
6.133097958E0,4.233422139E-1,7.403557348E-1,3.332470872E0,3.439870253E0
6.143106958E0,8.628391153E-1,5.881913030E-1,3.728385844E0,3.871862775E0
6.153115958E0,2.613122137E0,-4.105359346E-1,1.368082402E0,2.978018891E0
6.163124958E0,3.006728043E0,-7.419759983E-1,-7.092479628E-1,3.177101601E0
6.173133958E0,2.998807113E0,-7.318603152E-1,-5.842681721E0,6.607979519E0
6.183142958E0,2.871430197E0,-8.775822848E-1,-1.773541784E1,1.798778218E1
6.193151958E0,1.941272381E0,-8.610907978E-1,-1.801253610E1,1.813729507E1
6.203160958E0,1.461663872E0,-4.021527815E-1,-7.852031187E0,7.997035820E0
6.213168958E0,6.701107943E-1,1.346128446E-1,-3.253907098E0,3.324918119E0
6.223177958E0,-3.067864484E-1,6.330645901E-1,-4.487808180E-1,8.344416832E-1
6.233186958E0,-8.283358651E-1,5.556708437E-1,1.380105447E0,1.702821610E0
6.243195958E0,-6.445941299E-1,3.944093138E-1,2.377828133E0,2.495020426E0
6.253204958E0,-3.895409220E-1,4.916602045E-1,2.859846863E0,2.927831274E0
6.263213958E0,-5.041212058E-1,6.295732176E-1,3.204032103E0,3.303985827E0
6.273222958E0,-6.803109697E-1,7.788654971E-1,3.296295903E0,3.454709997E0
6.283231958E0,-5.032450005E-1,9.292319101E-1,3.175729825E0,3.346937017E0
6.293240958E0,-1.569307896E-1,1.094056149E0,2.943467894E0,3.144135712E0
6.303249958E0,-4.143658608E-2,1.134584954E0,2.360228598E0,2.619098899E0
6.313257958E0,9.607735455E-2,1.103581848E0,1.593986509E0,1.941112244E0
6.323266958E0,3.618648809E-1,1.045745868E0,9.308824329E-1,1.446054189E0
6.333275958E0,6.909850618E-1,8.337117952E-1,2.486351578E-1,1.111015371E0
6.343284958E0,1.042539547E0,4.797815859E-1,-5.154127640E-1,1.258065736E0
6.353293958E0,1.353329877E0,1.065713525E-1,-1.340155077E0,1.907583507E0
6.363302958E0,1.590595855E0,-1.763040769E-1,-2.302915506E0,2.804371253E0
6.373311958E0,1.743163744E0,-2.870263678E-1,-3.576911092E0,3.989398066E0
6.383320958E0,1.736161411E0,-2.644198626E-1,-5.217041341E0,5.504697509E0
6.393329958E0,1.585150635E0,-1.490484506E-1,-6.722125760E0,6.908103409E0
6.403338958E0,1.351657865E0,1.556762695E-2,-6.928448857E0,7.059081024E0
6.413347958E0,1.216808501E0,2.076866680E-1,-5.370491576E0,5.510529597E0
6.423355958E0,1.212702878E0,2.760376954E-1,-3.264856594E0,3.493727760E0
6.433364958E0,1.394035853E0,1.729705793E-1,-1.559310035E0,2.098738327E0
6.443373958E0,1.743435347E0,1.229230911E-1,-3.411332855E-1,1.780743894E0
6.453382958E0,2.340588385E0,-4.537380874E-2,6.588461334E-1,2.431972656E0
6.463391958E0,3.081165145E0,-3.494015408E-1,1.226495875E0,3.334659236E0
6.473400958E0,3.760356081E0,-5.664051622E-1,1.141390529E0,3.970373408E0
6.483409958E0,4.144614628E0,-6.437860447E-1,5.223499006E-1,4.226717438E0
6.493418958E0,3.980585903E0,-7.133375055E-1,-5.070337039E-1,4.075659174E0
6.503427958E0,3.109213654E0,-9.392516989E-1,-2.075412770E0,3.854444378E0
6.513436958E0,1.736629481E0,-1.555097408E0,-4.179372232E0,4.785536768E0
6.523445958E0,5.427186763E-1,-2.721572492E0,-6.391843445E0,6.968296995E0
6.533453958E0,6.845656961E-2,-4.161672125E0,-7.611708285E0,8.675384960E0
6.543462958E0,2.917108646E-1,-5.153733537E0,-6.908485293E0,8.623991747E0
6.553471958E0,6.821028489E-1,-5.111231881E0,-5.096593961E0,7.250187973E0
6.563480958E0,1.115215468E0,-4.000046314E0,-3.547313071E0,5.461456406E0
6.573489958E0,2.278644152E0,-2.639154233E0,-3.015761699E0,4.610007903E0
6.583498958E0,3.671800292E0,-1.708770422E0,-3.216544560E0,5.171863556E0
6.593507958E0,4.880544313E0,-1.107293075E0,-3.398484768E0,6.049422242E0
6.603516958E0,5.612041224E0,-8.114485216E-1,-3.387416573E0,6.605153022E0
6.613525958E0,5.281151383E0,-7.773656863E-1,-3.141738206E0,6.193979036E0
6.623534958E0,3.086467693E0,-6.114287227E-1,-1.873695817E0,3.662084641E0
6.633542958E0,3.375670686E-1,-7.786415488E-1,-2.292178702E-1,8.790762307E-1
6.643551958E0,-1.218079101E0,-1.323613742E0,1.281636581E0,2.208678872E0
6.653560958E0,-2.031311900E0,-1.377773577E0,2.507631058E0,3.508945937E0
6.663569958E0,-2.329999078E0,-1.355129065E0,3.555556183E0,4.461754168E0
6.673578958E0,-2.275755920E0,-1.700436385E0,4.420780377E0,5.254888015E0
6.683587958E0,-2.704292216E0,-2.598013224E0,5.027738904E0,6.272242628E0
6.693596958E0,-3.373181819E0,-3.179176174E0,5.265234092E0,7.014856148E0
6.703605958E0,-3.126076731E0,-3.469438391E0,3.846133565E0,6.049967097E0
6.713614958E0,-1.786341923E0,-3.432350671E0,2.726362531E0,4.733402714E0
6.723623958E0,-2.924786040E-1,-2.597016274E0,2.339697855E0,3.507737634E0
6.733632958E0,8.808298284E-1,-1.621551599E0,2.177480743E0,2.854244762E0
6.743640958E0,1.903976500E0,-8.285112816E-1,2.193318366E0,3.020298480E0
6.753649958E0,2.071608864E0,-2.271286601E-1,2.134262511E0,2.982989638E0
6.763658958E0,1.625776212E0,1.763198644E-1,2.323655580E0,2.841410256E0
6.773667958E0,1.087762498E0,5.140234655E-1,3.732609873E0,3.921711850E0
6.783676958E0,3.852271387E-1,7.016372269E-1,4.572455982E0,4.641987554E0
6.793685958E0,-5.463036042E-1,6.230524027E-1,4.270120727E0,4.349778494E0
6.803694958E0,-1.376033153E0,4.839950895E-1,3.672038566E0,3.951149923E0
6.813703958E0,-1.820892536E0,3.052170557E-1,3.170847107E0,3.669206789E0
6.823712958E0,-2.026195587E0,1.119478673E-1,2.711071770E0,3.386430425E0
6.833721958E0,-2.165791136E0,1.207596213E-1,2.481529087E0,3.295940039E0
6.843729958E0,-2.271148899E0,3.007655704E-1,2.461468752E0,3.362648609E0
6.853738958E0,-2.485793169E0,5.345384216E-1,2.546249286E0,3.598372469E0
6.863747958E0,-2.779439169E0,9.095706475E-1,2.882397820E0,4.106192647E0
6.873756958E0,-2.983718665E0,1.437937918E0,3.217808143E0,4.617849258E0
6.883765958E0,-3.208642925E0,1.744994507E0,3.462720232E0,5.032973938E0
6.893774958E0,-3.523039524E0,1.905451460E0,3.644726514E0,5.415402489E0
6.903783958E0,-3.751023047E0,2.137805192E0,3.802513044E0,5.753215656E0
6.913792958E0,-3.882365837E0,2.284952713E0,4.000328150E0,6.024649259E0
6.923801958E0,-4.053597746E0,2.219715913E0,4.103143836E0,6.180176596E0
6.933810958E0,-4.504835857E0,2.301129620E0,3.890367459E0,6.381512563E0
6.943819958E0,-5.051425974E0,2.582493544E0,3.620160607E0,6.729913826E0
6.953827958E0,-5.447294168E0,2.788304425E0,3.398649659E0,6.999891059E0
6.963836958E0,-5.525929863E0,3.061010377E0,3.174836370E0,7.070026263E0
6.973845958E0,-5.302112482E0,3.260726121E0,2.942418904E0,6.884951751E0
6.983854958E0,-4.673628308E0,3.187954014E0,2.612939704E0,6.231637526E0
6.993863958E0,-4.036242918E0,2.977151365E0,2.148821347E0,5.456383447E0
7.003872958E0,-3.385522952E0,2.628761392E0,1.519448104E0,4.547622968E0
7.013881958E0,-2.571309282E0,2.284766772E0,7.288788199E-1,3.516113616E0
7.023890958E0,-1.730897455E0,1.739909184E0,-3.836127225E-1,2.484038786E0
7.033899958E0,-5.022275850E-1,7.289729601E-1,-1.586131944E0,1.816438457E0
7.043908958E0,1.128656170E0,-6.889300579E-1,-2.964306786E0,3.245859531E0
7.053917958E0,2.720473216E0,-2.318626828E0,-5.338137177E0,6.424384282E0
7.063925958E0,4.268985197E0,-4.272210229E0,-8.512733227E0,1.043755919E1
7.073934958E0,6.342098258E0,-6.285676720E0,-1.074235842E1,1.396890141E1
7.083943958E0,8.536751835E0,-7.707309092E0,-1.127078533E1,1.610308502E1
7.093952958E0,8.802286177E0,-7.149785850E0,-1.066910333E1,1.557014597E1
7.103962208E0,6.472647872E0,-4.480463492E0,-8.244433737E0,1.139914081E1
7.113971208E0,4.066883205E0,-1.717289815E0,-4.814794712E0,6.532294499E0
7.123980208E0,2.511075945E0,5.461626863E-1,-2.166239033E0,3.361009912E0
7.133989208E0,2.038914450E0,2.483655134E0,-8.181038225E-1,3.315872257E0
7.143998208E0,1.874247794E0,4.751764358E0,-2.189026509E-1,5.112728008E0
7.154007208E0,2.145222093E0,5.955832361E0,6.971632299E-1,6.368669681E0
7.164016208E0,2.096759785E0,5.388615021E0,2.533247417E0,6.312758186E0
7.174024208E0,1.301893675E0,3.217131620E0,4.837071726E0,5.953328975E0
7.184033208E0,4.500514179E-1,-1.378551257E-1,5.762715200E0,5.781905983E0
7.194042208E0,1.848085597E-1,-3.661863241E0,5.751169288E0,6.820509129E0
7.204051208E0,2.694931993E-1,-5.818322806E0,5.387911016E0,7.934424489E0
7.214060208E0,-1.312767157E-1,-7.033271892E0,4.797912923E0,8.514934850E0
7.224069208E0,-6.198919827E-1,-8.606733651E0,4.547388968E0,9.753915964E0
7.234078208E0,-1.076209277E0,-1.003272395E1,4.801733494E0,1.117454343E1
7.244087208E0,-1.597057613E0,-1.043352603E1,4.628063003E0,1.152510414E1
7.254096208E0,-2.964681593E0,-6.199506302E0,-1.194201703E-1,6.872952533E0
7.264105208E0,-5.407521408E0,-4.929939544E-1,-8.697328656E0,1.025318763E1
7.274113208E0,-7.518996588E0,2.718148363E0,-1.166794927E1,1.414442223E1
7.284122208E0,-7.712982645E0,3.673871668E0,-7.977951561E0,1.168910371E1
7.294131208E0,-6.431296363E0,3.941382954E0,-2.745774118E0,8.027163135E0
7.304140208E0,-5.129772817E0,4.574079754E0,5.340496309E-1,6.893619061E0
7.314149208E0,-4.421850710E0,4.806492543E0,1.918186111E0,6.806950288E0
7.324158208E0,-3.684638731E0,3.692252975E0,2.877249931E0,5.957168940E0
7.334167208E0,-2.901221761E0,1.566453871E0,4.119494405E0,5.276466582E0
7.344176208E0,-2.270320348E0,-6.575626695E-1,5.763760682E0,6.229581074E0
7.354185208E0,-1.709717378E0,-2.341150888E0,7.409678214E0,7.956598031E0
7.364194208E0,-8.332194597E-1,-3.509546782E0,7.845246663E0,8.634759318E0
7.374203208E0,1.203590870E-2,-3.398221643E0,7.350072867E0,8.097630909E0
7.384211208E0,4.598835111E-1,-2.001498410E0,6.746030931E0,7.051696396E0
7.394220208E0,5.521666074E-1,-5.613765568E-1,5.970542786E0,6.022243167E0
7.404229208E0,6.838309935E-1,1.827161336E-1,5.054181182E0,5.103504427E0
7.414238208E0,1.142578391E0,4.309210825E-1,4.024633856E0,4.205812173E0
7.424247208E0,2.041102478E0,2.556320822E-1,2.466901692E0,3.212016664E0
7.434256208E0,2.347679304E0,1.248976958E-1,1.229216877E0,2.652955273E0
7.444265208E0,2.188450266E0,2.537007469E-1,2.749004120E-1,2.220191179E0
7.454274208E0,2.088194491E0,3.187118447E-1,-1.555942331E0,2.623564371E0
7.464283208E0,1.855459228E0,1.192750132E-1,-5.191735176E0,5.514623253E0
7.474292208E0,1.276212411E0,-1.366143465E-1,-1.026705580E1,1.034697136E1
7.484301208E0,3.480666214E-1,-3.480882561E-1,-1.128109280E1,1.129182760E1
7.494309208E0,-3.264915651E-1,-1.086880445E-1,-7.583376771E0,7.591179954E0
7.504318208E0,-6.366734916E-1,-2.862095118E-2,-3.526775018E0,3.583896528E0
7.514327208E0,-9.782994050E-1,1.173658973E-1,-7.285263059E-1,1.225395878E0
7.524336208E0,-9.736765963E-1,3.439145136E-1,1.038046766E0,1.464194111E0
7.534345208E0,-4.749973941E-1,5.043714666E-1,2.209283311E0,2.315371644E0
7.544354208E0,-8.906157285E-2,7.195624512E-1,2.921673567E0,3.010295421E0
7.554363208E0,-1.041941670E-1,9.423647565E-1,3.143126920E0,3.283009990E0
7.564372208E0,-1.917951053E-1,1.149972487E0,3.124587153E0,3.335006291E0
7.574381208E0,-1.122773579E-1,1.403980798E0,3.034652299E0,3.345576611E0
7.584390208E0,-2.065908998E-2,1.469639767E0,2.734911160E0,3.104836050E0
7.594398208E0,1.642541349E-2,1.334903546E0,2.068026275E0,2.461497501E0
7.604407208E0,1.179322001E-1,1.221868681E0,1.303070135E0,1.790213075E0
7.614416208E0,2.685956517E-1,1.108839079E0,6.155655547E-1,1.296375208E0
7.624425208E0,4.725512114E-1,8.803041637E-1,-1.053767663E-1,1.004661302E0
7.634434208E0,7.873161855E-1,5.585266238E-1,-9.610278994E-1,1.362128257E0
7.644443208E0,1.109592201E0,2.435990971E-1,-1.780814112E0,2.112305440E0
7.654452208E0,1.341403019E0,8.128857672E-2,-2.513937280E0,2.850587753E0
7.664461208E0,1.513283969E0,-8.731530190E-2,-3.163329050E0,3.507748995E0
7.674470208E0,1.665826423E0,-3.013491225E-1,-3.734296795E0,4.100092867E0
7.684479208E0,1.746582026E0,-2.156277716E-1,-4.193693233E0,4.547978346E0
7.694488208E0,1.733247159E0,1.102153373E-1,-4.457254139E0,4.783660481E0
7.704497208E0,1.645622539E0,2.660921663E-1,-4.420278979E0,4.724166046E0
7.714505208E0,1.574124248E0,2.070048827E-1,-3.992554277E0,4.296650768E0
7.724514208E0,1.455644164E0,1.965635097E-1,-3.199041504E0,3.520142567E0
7.734523208E0,1.487825923E0,1.462406176E-1,-2.182509056E0,2.645440999E0
7.744532208E0,2.004550364E0,-6.896206141E-3,-1.250869702E0,2.362825581E0
7.754541208E0,2.898533796E0,-2.088602042E-1,-6.710940036E-1,2.982530455E0
7.764550208E0,3.727802877E0,-4.926232409E-1,-4.601799649E-1,3.788265770E0
7.774559208E0,4.131352558E0,-7.704197788E-1,-5.197844347E-1,4.234595194E0
7.784568208E0,4.107236010E0,-1.039985191E0,-9.388853708E-1,4.339638531E0
7.794577208E0,3.399440203E0,-1.393893181E0,-1.992659174E0,4.179691672E0
7.804586208E0,2.019592472E0,-1.874986297E0,-3.882363498E0,4.760995032E0
7.814594208E0,6.327102488E-1,-2.697674337E0,-6.317426516E0,6.898380018E0
7.824603208E0,9.433649227E-2,-3.898332828E0,-7.756637957E0,8.681666350E0
7.834612208E0,2.401461701E-1,-4.998996330E0,-7.201847119E0,8.770076193E0
7.844621208E0,6.476759049E-1,-5.066616456E0,-5.543119508E0,7.537656152E0
7.854630208E0,1.294846318E0,-3.955784646E0,-3.872954158E0,5.685475623E0
7.864639208E0,2.700214952E0,-2.724061652E0,-2.915806471E0,4.818049403E0
7.874648208E0,4.364278440E0,-1.997622290E0,-2.507409448E0,5.415212208E0
7.884657208E0,5.680490484E0,-1.584358045E0,-2.494537972E0,6.403193129E0
7.894666208E0,6.204050174E0,-1.257054302E0,-2.519607909E0,6.813137904E0
7.904675208E0,5.276050857E0,-1.205356729E0,-1.981808496E0,5.763433213E0
7.914684208E0,2.564784959E0,-1.554462401E0,-7.742953134E-1,3.097419648E0
7.924692208E0,-1.974511170E-1,-1.792597275E0,8.483176283E-1,1.992996420E0
7.934701208E0,-1.744602159E0,-2.015970268E0,2.314517405E0,3.530547215E0
7.944710208E0,-2.394951119E0,-1.910084794E0,3.436048450E0,4.603329636E0
7.954719208E0,-2.576565052E0,-1.958020268E0,4.135697039E0,5.251335148E0
7.964728208E0,-3.056149879E0,-2.970279717E0,4.756433945E0,6.386413512E0
7.974737208E0,-3.659697725E0,-3.374599476E0,4.845020431E0,6.946620189E0
7.984746208E0,-4.132405934E0,-3.174775559E0,4.093475465E0,6.626652249E0
7.994755208E0,-2.988828839E0,-3.090296157E0,2.794149302E0,5.127406605E0
8.004764208E0,-1.130937169E0,-2.205724111E0,2.102724237E0,3.250490263E0
8.014773208E0,6.456007281E-1,-1.045258210E0,2.277729063E0,2.587936381E0
8.024782208E0,1.938758955E0,-1.761304146E-1,3.008476653E0,3.583397826E0
8.034790208E0,2.680770621E0,3.767594934E-2,2.647881787E0,3.768186376E0
8.044799208E0,2.591657593E0,6.633432269E-1,2.325172348E0,3.544451969E0
8.054808208E0,1.714087587E0,1.036926513E0,3.001048935E0,3.608269330E0
8.064817208E0,9.794287947E-1,1.016798642E0,4.134329960E0,4.368734881E0
8.074826208E0,-1.456827933E-1,5.372562075E-1,3.822783294E0,3.863099768E0
8.084835208E0,-1.060793385E0,3.178604901E-2,3.214864655E0,3.385505532E0
8.094844208E0,-1.839645726E0,-3.398103529E-1,2.908867580E0,3.458508070E0
8.104853750E0,-2.416932264E0,-4.753833103E-1,2.590044931E0,3.574336806E0
8.114862750E0,-2.719625954E0,-2.697712344E-1,2.380393306E0,3.624281189E0
8.124871750E0,-2.924814399E0,6.094202042E-2,2.279102866E0,3.708444832E0
8.134880750E0,-2.881640021E0,3.640295202E-1,2.368114446E0,3.747576914E0
8.144888750E0,-2.729171241E0,5.573519182E-1,2.585337045E0,3.800392672E0
8.154897750E0,-2.949965905E0,7.740690261E-1,2.852499837E0,4.175911519E0
8.164906750E0,-3.279259456E0,1.208604273E0,3.202297819E0,4.740145376E0
8.174915750E0,-3.380258704E0,1.620755793E0,3.491995487E0,5.123185603E0
8.184924750E0,-3.348270926E0,1.729111131E0,3.713655246E0,5.290744634E0
8.194933750E0,-3.489606315E0,1.852662798E0,3.900997112E0,5.552250908E0
8.204942750E0,-3.607004956E0,2.043730509E0,3.991786537E0,5.755143691E0
8.214951750E0,-3.958490737E0,2.202613977E0,3.964008754E0,6.019511828E0
8.224960750E0,-4.598054215E0,2.637338673E0,3.648818980E0,6.435179701E0
8.234969750E0,-5.013314992E0,2.960189762E0,3.458083098E0,6.771586915E0
8.244978750E0,-5.189991537E0,3.165935739E0,3.251602710E0,6.894351415E0
8.254986750E0,-5.015344561E0,3.318476731E0,3.056354532E0,6.745907789E0
8.264995750E0,-4.603965165E0,3.365947936E0,2.768611003E0,6.339661477E0
8.275004750E0,-4.086341861E0,3.384661950E0,2.421286393E0,5.832388372E0
8.285013750E0,-3.487579670E0,3.391036584E0,2.183234550E0,5.331871545E0
8.295022750E0,-2.903726708E0,3.198866673E0,1.768330307E0,4.668122627E0
8.305031750E0,-2.498927769E0,2.653508563E0,8.636337519E-1,3.745879196E0
8.315040750E0,-1.822047361E0,1.894326548E0,-5.706967261E-1,2.689614175E0
8.325049750E0,-4.481724152E-1,8.566410667E-1,-2.292722493E0,2.488226047E0
8.335058750E0,1.414643488E0,-5.889584577E-1,-4.559578367E0,4.810181196E0
8.345067750E0,3.778893216E0,-2.201092531E0,-7.701425039E0,8.856454702E0
8.355076750E0,6.174610028E0,-4.441942036E0,-1.097564127E1,1.335370208E1
8.365084750E0,8.692764904E0,-7.328677320E0,-1.294398246E1,1.722847512E1
8.375093750E0,1.040499395E1,-9.085048755E0,-1.281350769E1,1.884112495E1
8.385102750E0,8.536464736E0,-7.720139052E0,-9.635045460E0,1.501019248E1
8.395111750E0,4.924605129E0,-4.222144614E0,-4.893621026E0,8.125624134E0
8.405120750E0,2.651786266E0,-9.672399813E-1,-1.158939192E0,3.051338007E0
8.415129750E0,1.514912711E0,1.698779869E0,5.918529756E-1,2.351829822E0
8.425138750E0,8.001861995E-1,4.587562264E0,1.175083501E0,4.802795718E0
8.435147750E0,5.450452834E-1,6.531911157E0,1.877602926E0,6.818235143E0
8.445156750E0,4.154519811E-1,5.715022970E0,2.979582929E0,6.458482975E0
8.455165750E0,3.173962212E-1,1.994678802E0,4.420443285E0,4.860020856E0
8.465174750E0,7.213841513E-1,-2.834592154E0,5.162429516E0,5.933463262E0
8.475183750E0,1.361667129E0,-6.497822474E0,5.475172523E0,8.605425523E0
8.485191750E0,1.564758763E0,-8.485959411E0,5.270911739E0,1.011150274E1
8.495200750E0,8.501898336E-1,-9.776881371E0,4.877387401E0,1.095897531E1
8.505209750E0,4.913093716E-2,-1.108721667E1,5.240127318E0,1.226326717E1
8.515218750E0,-6.931198803E-1,-1.113641514E1,5.725870725E0,1.254136169E1
8.525227750E0,-2.019057890E0,-6.852433884E0,3.240690637E0,7.844394222E0
8.535236750E0,-4.056421367E0,-3.827879727E-1,-3.436848350E0,5.330385306E0
8.545245750E0,-5.824075881E0,3.642421834E0,-7.271306194E0,1.000294909E1
8.555254750E0,-6.705403308E0,5.198503329E0,-6.142700018E0,1.047471402E1
8.565263750E0,-6.757659874E0,5.665912791E0,-3.095820022E0,9.346263228E0
8.575272750E0,-6.012135201E0,6.000549527E0,-5.072857920E-1,8.509389119E0
8.585280750E0,-5.082622039E0,6.033881580E0,9.658629620E-1,7.948186270E0
8.595289750E0,-4.334764619E0,4.777100928E0,1.971455415E0,6.745184507E0
8.605298750E0,-3.547811546E0,2.058303525E0,2.985980076E0,5.073426571E0
8.615307750E0,-2.705628597E0,-7.987875456E-1,4.352174996E0,5.186512783E0
8.625316750E0,-1.674447266E0,-3.192492038E0,6.027173070E0,7.023004647E0
8.635325750E0,-8.174284691E-1,-4.872712260E0,7.464327461E0,8.951407627E0
8.645334750E0,-3.965654746E-1,-4.952147854E0,7.631714534E0,9.106267032E0
8.655343750E0,-2.396715224E-1,-3.254593561E0,6.957344627E0,7.684690361E0
8.665352750E0,9.008746684E-2,-6.897176778E-1,6.533151351E0,6.570075555E0
8.675361750E0,7.011410907E-1,7.813803846E-1,5.180684524E0,5.285985837E0
8.685370750E0,1.490355282E0,7.401224309E-1,2.924560922E0,3.364817479E0
8.695378750E0,1.978677312E0,5.454218441E-1,1.249587407E0,2.402939362E0
8.705387750E0,2.203457730E0,4.134449244E-1,-2.519927569E-1,2.256028152E0
8.715396750E0,2.420983215E0,2.533984458E-1,-2.675605776E0,3.617213951E0
8.725405750E0,2.425907740E0,-1.032659215E-1,-6.265071132E0,6.719137482E0
8.735414750E0,1.779748311E0,-3.812127328E-1,-8.953962366E0,9.137082097E0
8.745423750E0,5.710449278E-1,-2.738350493E-1,-8.060975007E0,8.085814492E0
8.755432750E0,-3.211837551E-1,1.802164489E-1,-5.078762877E0,5.092098716E0
8.765441750E0,-6.743696138E-1,2.954323250E-1,-2.346288836E0,2.459090469E0
8.775450750E0,-1.199524424E0,4.612155068E-1,-3.076056433E-1,1.321438541E0
8.785459750E0,-1.643382179E0,5.047234690E-1,8.422399592E-1,1.914371676E0
8.795468750E0,-1.582289885E0,3.486478347E-1,1.450669060E0,2.174772934E0
8.805477750E0,-1.259718293E0,2.959965813E-1,1.671039509E0,2.113498804E0
8.815485750E0,-9.204596248E-1,3.975779200E-1,1.754025532E0,2.020376126E0
8.825494750E0,-6.306415039E-1,5.841146243E-1,1.861052967E0,2.049979695E0
8.835503750E0,-3.866047427E-1,7.539622056E-1,2.017369507E0,2.188081800E0
8.845512750E0,-1.219916296E-1,8.976452512E-1,2.218015543E0,2.395880194E0
8.855521750E0,1.150819749E-1,9.633182538E-1,2.392252629E0,2.581491538E0
8.865530750E0,3.939973775E-1,9.633053899E-1,2.208545392E0,2.441488062E0
8.875539750E0,7.105524766E-1,1.043988195E0,1.589698307E0,2.030255373E0
8.885548750E0,1.051532273E0,1.133247696E0,8.236030557E-1,1.751654205E0
8.895557750E0,1.409296209E0,1.203422470E0,-6.163842380E-2,1.854222409E0
8.905566750E0,1.695356324E0,1.151216190E0,-9.766803841E-1,2.270118137E0
8.915575750E0,1.800041365E0,9.056126672E-1,-1.846488284E0,2.733093888E0
8.925584750E0,1.792021032E0,5.729938048E-1,-2.546329685E0,3.165984230E0
8.935592750E0,1.751321195E0,2.787373549E-1,-3.026422927E0,3.507713810E0
8.945601750E0,1.653212810E0,1.993152094E-1,-3.346285504E0,3.737708633E0
8.955610750E0,1.571561998E0,3.394285297E-1,-3.580362411E0,3.924794750E0
8.965619750E0,1.614787540E0,4.438650638E-1,-3.779351930E0,4.133770193E0
8.975628750E0,1.547878143E0,3.096539229E-1,-3.797635004E0,4.112644395E0
8.985637750E0,1.263001212E0,6.528825581E-2,-3.458571340E0,3.682546719E0
8.995646750E0,9.367596155E-1,-2.223737043E-1,-2.585946617E0,2.759363794E0
9.005655750E0,7.632747737E-1,-4.800148898E-1,-1.596467190E0,1.833496704E0
9.015664750E0,1.006865100E0,-7.330607486E-1,-8.010106570E-1,1.480801629E0
9.025673750E0,1.727274520E0,-8.716806901E-1,-4.248431942E-1,1.980857449E0
9.035682750E0,2.432629115E0,-7.827743608E-1,-4.856200308E-1,2.601201054E0
9.045690750E0,2.591137483E0,-5.252963126E-1,-8.263169678E-1,2.769969206E0
9.055699750E0,2.219352070E0,-4.080678248E-1,-1.340097920E0,2.624481929E0
9.065708750E0,1.614234247E0,-5.223376215E-1,-2.045861381E0,2.657844537E0
9.075717750E0,9.325978598E-1,-8.045909071E-1,-2.931422630E0,3.179676702E0
9.085726750E0,5.711680117E-1,-1.386481835E0,-3.850155864E0,4.131859746E0
9.095735750E0,7.443283331E-1,-2.351499290E0,-4.241171747E0,4.906231890E0
9.105744375E0,1.381226650E0,-3.518608797E0,-3.688922401E0,5.281717846E0
9.115753375E0,2.138710926E0,-4.264843907E0,-2.844642348E0,5.554724841E0
9.125762375E0,2.720710905E0,-3.835233185E0,-2.541748391E0,5.345256430E0
9.135771375E0,3.337163848E0,-2.589566921E0,-3.088080647E0,5.232471831E0
9.145780375E0,4.257703579E0,-1.698830740E0,-3.975583903E0,6.067893623E0
9.155788375E0,5.266219933E0,-1.488440319E0,-4.432385346E0,7.042341005E0
9.165797375E0,5.791117465E0,-1.584739283E0,-4.105451732E0,7.273456813E0
9.175806375E0,5.516130515E0,-1.553604029E0,-3.356856685E0,6.641526040E0
9.185815375E0,4.044499479E0,-1.406376402E0,-2.365927879E0,4.892186152E0
9.195824375E0,1.923330492E0,-1.176117142E0,-1.694876853E0,2.820471460E0
9.205833375E0,1.608846769E-1,-1.068142458E0,-8.321348011E-1,1.363547035E0
9.215842375E0,-8.205058587E-1,-1.087672158E0,9.562548172E-1,1.664537132E0
9.225851375E0,-1.785042087E0,-8.272032595E-1,2.627921147E0,3.282774748E0
9.235860375E0,-1.832178832E0,-5.311499602E-1,3.825854251E0,4.275062608E0
9.245869375E0,-1.562268434E0,-1.132515040E0,4.507196378E0,4.902865709E0
9.255878375E0,-1.279256764E0,-1.955929888E0,5.010807706E0,5.529046343E0
9.265887375E0,-1.094099418E0,-2.038326513E0,5.036227891E0,5.542149392E0
9.275895375E0,7.041597158E-2,-1.824946995E0,4.090274699E0,4.479479552E0
9.285904375E0,1.803069053E0,-1.633209777E0,3.095600166E0,3.937152852E0
9.295913375E0,2.938874614E0,-1.278831671E0,2.958658376E0,4.361886498E0
9.305922375E0,3.422541382E0,-6.252725905E-1,3.347752863E0,4.828271384E0
9.315931375E0,3.491715990E0,-1.798018813E-1,3.383169740E0,4.865207782E0
9.325940375E0,3.298023463E0,-2.025779557E-1,3.479716334E0,4.798585454E0
9.335949375E0,2.272408974E0,-4.595414490E-1,3.562939754E0,4.250830575E0
9.345958375E0,1.124794376E0,-4.602325898E-1,3.810259435E0,3.999381626E0
9.355967375E0,1.659653226E-1,-3.261436558E-1,3.769270746E0,3.786993019E0
9.365976375E0,-7.168440807E-1,-3.729348296E-1,3.604076378E0,3.693550103E0
9.375985375E0,-1.406871076E0,-4.129601902E-1,3.559850086E0,3.849981166E0
9.385993375E0,-1.753545183E0,-4.691256201E-1,3.445730270E0,3.894618935E0
9.396002375E0,-2.052281770E0,-4.294850063E-1,3.043966621E0,3.696221127E0
9.406011375E0,-2.337072747E0,-2.537030858E-1,2.712297346E0,3.589266105E0
9.416020375E0,-2.491761714E0,-4.044986844E-2,2.658712293E0,3.644072404E0
9.426029375E0,-2.508744952E0,1.358775973E-1,3.090622724E0,3.982990432E0
9.436038375E0,-2.455606626E0,5.162214339E-1,3.618675414E0,4.403555407E0
9.446047375E0,-2.587663360E0,1.015142711E0,3.781218069E0,4.692986946E0
9.456056375E0,-2.834727809E0,1.333821226E0,3.640712985E0,4.803077332E0
9.466065375E0,-2.927327240E0,1.444676834E0,3.623071351E0,4.876779874E0
9.476074375E0,-3.114387563E0,1.430539436E0,3.626297844E0,4.989578041E0
9.486083375E0,-3.553812836E0,1.390867247E0,3.573873171E0,5.228447839E0
9.496092375E0,-4.078665637E0,1.410710358E0,3.384690894E0,5.484683176E0
9.506100375E0,-4.609357175E0,1.433730846E0,3.156916409E0,5.767831388E0
9.516109375E0,-5.060694981E0,1.526324430E0,2.987041053E0,6.071467220E0
9.526118375E0,-5.507588317E0,1.781191111E0,2.778908242E0,6.420942444E0
9.536127375E0,-5.709559332E0,2.149617738E0,2.590879329E0,6.628165650E0
9.546136375E0,-5.453519114E0,2.425911541E0,2.542248621E0,6.487599370E0
9.556145375E0,-4.913029981E0,2.513235614E0,2.616085213E0,6.107218572E0
9.566154375E0,-4.441936188E0,2.545976513E0,2.666556040E0,5.772634981E0
9.576163375E0,-4.080837000E0,2.523130272E0,2.582068744E0,5.448531545E0
9.586172375E0,-3.594858535E0,2.447997644E0,2.160982094E0,4.856495028E0
9.596181375E0,-2.831979618E0,2.064929005E0,1.471025265E0,3.801046656E0
9.606190375E0,-2.115586358E0,1.179131967E0,6.200402096E-1,2.500101537E0
9.616199375E0,-1.558707187E0,5.826165676E-2,-2.584315829E-1,1.581059581E0
9.626207375E0,-7.712807813E-1,-8.499325562E-1,-1.219325289E0,1.674518902E0
9.636216375E0,1.845925051E-1,-1.733272009E0,-2.433545520E0,2.993401084E0
9.646225375E0,1.819066451E0,-2.869266143E0,-4.156918924E0,5.368581367E0
9.656234375E0,4.163187431E0,-3.951286383E0,-6.682076426E0,8.808798955E0
9.666243375E0,7.210940709E0,-5.012647825E0,-9.992765250E0,1.330337031E1
9.676252375E0,9.987041996E0,-5.728190900E0,-1.220974408E1,1.678186609E1
9.686261375E0,1.018173206E1,-5.008041973E0,-1.072579676E1,1.561380377E1
9.696270375E0,7.478159049E0,-2.774546512E0,-7.261665305E0,1.078669338E1
9.706279375E0,4.449309527E0,-2.700150633E-1,-4.134965260E0,6.080065880E0
9.716288375E0,2.738930829E0,1.546527729E0,-1.641185964E0,3.547813618E0
9.726297375E0,2.156974704E0,3.430152118E0,3.441320300E-2,4.052118915E0
9.736305375E0,2.288204935E0,5.573148469E0,9.385374615E-1,6.097271377E0
9.746314375E0,3.267777571E0,6.655752261E0,1.994811826E0,7.678325509E0
9.756323375E0,3.386749406E0,6.401427616E0,3.709451391E0,8.136852996E0
9.766332375E0,2.326930167E0,4.747718085E0,5.433186007E0,7.581222936E0
9.776341375E0,1.147429825E0,1.905897603E0,5.665494715E0,6.086614103E0
9.786350375E0,4.565345183E-1,-1.446773061E0,5.347395658E0,5.558436505E0
9.796359375E0,3.728178853E-1,-4.117836719E0,5.213832389E0,6.654293396E0
9.806368375E0,3.643332830E-1,-5.642911014E0,4.998380034E0,7.547117756E0
9.816377375E0,1.127281782E-1,-7.062538961E0,4.776073573E0,8.526607941E0
9.826386375E0,-6.326541156E-2,-9.096435623E0,4.981093326E0,1.037113467E1
9.836395375E0,-4.261982864E-1,-1.172772067E1,5.653469331E0,1.302623478E1
9.846404375E0,-1.784709089E0,-1.278795419E1,3.636018548E0,1.341408177E1
9.856412375E0,-5.494412786E0,-7.368178185E0,-7.103563610E0,1.161633495E1
9.866421375E0,-9.238555123E0,-1.013555192E0,-1.719723660E1,1.954797027E1
9.876430375E0,-9.437956286E0,2.913951734E0,-1.219333446E1,1.569214895E1
9.886439375E0,-6.892470939E0,3.994445266E0,-4.037101289E0,8.930841811E0
9.896448375E0,-4.746752417E0,3.875364965E0,4.006418610E-1,6.140897819E0
9.906457375E0,-3.702664820E0,3.710314440E0,3.062051182E0,6.070610962E0
9.916466375E0,-3.594674348E0,3.868487470E0,4.244730070E0,6.775294262E0
9.926475375E0,-3.409090447E0,3.533786999E0,4.913877243E0,6.946634998E0
9.936484375E0,-2.660177605E0,2.334440038E0,6.605688400E0,7.494082627E0
9.946493375E0,-1.937193655E0,1.336749512E-1,7.984673520E0,8.217396149E0
9.956502375E0,-1.199992201E0,-2.262536243E0,8.296162884E0,8.682474885E0
9.966510375E0,-1.803731543E-1,-3.567269910E0,7.248402650E0,8.080673862E0
9.976519375E0,3.713192439E-1,-2.991967624E0,6.025552222E0,6.737731652E0
9.986528375E0,-1.081150174E-3,-1.501528727E0,5.082432590E0,5.299595335E0
9.996537375E0,-1.797974959E-1,-2.156149077E-1,4.592772717E0,4.601345256E0
1.000654638E1,1.686220050E-2,6.608265853E-1,4.859934340E0,4.904685300E0
1.001655537E1,1.175757539E0,5.709139502E-1,3.357990460E0,3.603394020E0
1.002656438E1,2.173631667E0,1.054557037E-1,1.560597299E0,2.677920735E0
1.003657338E1,2.124402497E0,-3.005176485E-2,4.217234123E-1,2.166065492E0
1.004658237E1,1.840729215E0,8.199901342E-2,-5.734937418E-1,1.929741681E0
1.005659138E1,1.660279462E0,6.425739169E-2,-1.776913873E0,2.432710385E0
1.006660037E1,1.362365871E0,1.051329374E-3,-3.145012062E0,3.427410501E0
1.007660937E1,8.722709665E-1,3.710292220E-2,-4.359006298E0,4.445578610E0
1.008661838E1,7.857400686E-2,1.783564496E-1,-4.634134752E0,4.638231322E0
1.009662638E1,-8.514595565E-1,1.523591441E-1,-3.771046545E0,3.868977737E0
1.010663562E1,-1.623313365E0,1.175290346E-2,-2.507818753E0,2.987380008E0
1.011664462E1,-2.225726558E0,-8.542606652E-2,-1.279744422E0,2.568832830E0
1.012665363E1,-2.509441940E0,-2.236343640E-1,-1.867279083E-1,2.526297388E0
1.013666262E1,-2.291263028E0,-3.839275950E-1,6.958098918E-1,2.425167637E0
1.014667162E1,-1.852454052E0,-3.344543034E-1,1.233602289E0,2.250604431E0
1.015668063E1,-1.556981089E0,-9.779468179E-2,1.490653490E0,2.157730692E0
1.016668962E1,-1.329046975E0,6.503624082E-2,1.660836702E0,2.128138653E0
1.017669863E1,-9.091432160E-1,2.387061471E-1,1.853437554E0,2.078160912E0
1.018670763E1,-4.807045689E-1,4.529715174E-1,1.982059341E0,2.089214998E0
1.019671662E1,-1.515513512E-1,6.187266326E-1,2.039445670E0,2.136616273E0
1.020672463E1,3.102503389E-2,7.356615901E-1,1.970134529E0,2.103233366E0
1.021673362E1,1.808222204E-1,7.351177990E-1,1.529142787E0,1.706274456E0
1.022674263E1,4.298767698E-1,6.543999106E-1,8.775319988E-1,1.176050887E0
1.023675162E1,7.231073257E-1,5.367808288E-1,2.592841800E-1,9.371478799E-1
1.024676062E1,9.414610693E-1,4.100886226E-1,-2.294804833E-1,1.052227597E0
1.025676963E1,1.073354959E0,2.709810233E-1,-6.203256999E-1,1.268986035E0
1.026677862E1,1.060008397E0,1.731939429E-1,-9.036659829E-1,1.403647445E0
1.027678762E1,9.383904040E-1,5.864114106E-2,-1.064798509E0,1.420496814E0
1.028679663E1,7.893363985E-1,-1.160245460E-1,-1.141016892E0,1.392276263E0
1.029680562E1,6.974029657E-1,-2.697694802E-1,-1.250433353E0,1.456959176E0
1.030681463E1,7.348701695E-1,-3.021121842E-1,-1.395673658E0,1.605992185E0
1.031682363E1,8.393277535E-1,-2.490370077E-1,-1.616738902E0,1.838568787E0
1.032683163E1,9.142036888E-1,-1.579625309E-1,-1.890936332E0,2.106267020E0
1.033684062E1,9.381331265E-1,-5.804004729E-2,-2.188168430E0,2.381500260E0
1.034684962E1,9.050794011E-1,-1.476948202E-2,-2.440818871E0,2.603264032E0
1.035685863E1,9.530914736E-1,-1.386895233E-1,-2.550232117E0,2.726041450E0
1.036686762E1,1.046921158E0,-2.581545711E-1,-2.462429742E0,2.688168136E0
1.037687662E1,1.031668404E0,-9.387529314E-2,-2.238433435E0,2.466523162E0
1.038688563E1,8.782342494E-1,1.145153797E-1,-1.905736512E0,2.101485385E0
1.039689462E1,7.948406750E-1,1.498805094E-1,-1.567428601E0,1.763822068E0
1.040690363E1,7.956376505E-1,1.781465346E-1,-1.313593661E0,1.546060725E0
1.041691263E1,7.684755796E-1,2.356708574E-1,-1.117770993E0,1.376774296E0
1.042692162E1,6.888908815E-1,1.014526999E-1,-9.917304593E-1,1.211772504E0
1.043693063E1,5.133349559E-1,-2.320502615E-1,-1.010121268E0,1.156592010E0
1.044693862E1,3.024899143E-1,-6.563604820E-1,-1.192805827E0,1.394666616E0
1.045694763E1,2.089794874E-2,-1.031585081E0,-1.613596462E0,1.915280148E0
1.046695662E1,-3.271160477E-1,-1.325039293E0,-2.291105884E0,2.666814619E0
1.047696562E1,-7.555886087E-1,-1.545347761E0,-3.160815040E0,3.598578270E0
1.048697463E1,-1.122231250E0,-1.690374497E0,-4.120377919E0,4.592851305E0
1.049698362E1,-1.118945407E0,-1.810778022E0,-4.916227823E0,5.357261603E0
1.050699262E1,-4.824259892E-1,-1.958198608E0,-4.866760379E0,5.268076804E0
1.051700163E1,5.710653931E-1,-2.625539576E0,-3.607196453E0,4.497937305E0
1.052701062E1,1.535932867E0,-2.975410649E0,-1.763351256E0,3.784384488E0
1.053701963E1,2.037164378E0,-2.909666895E0,-3.466211897E-1,3.568801815E0
1.054702863E1,2.531101489E0,-2.892025260E0,-3.369808853E-2,3.843360563E0
1.055703762E1,3.434771419E0,-2.983828885E0,-9.981467552E-1,4.658023879E0
1.056704563E1,4.217607175E0,-3.177462940E0,-2.684927407E0,5.923961191E0
1.057705462E1,4.363609811E0,-3.122118459E0,-3.689500106E0,6.511614645E0
1.058706363E1,3.424832029E0,-2.447941511E0,-3.054397177E0,5.201080097E0
1.059707262E1,1.115855738E0,-1.540674666E0,-1.699631224E0,2.550991719E0
1.060708162E1,-1.289900451E0,-1.231392041E0,-1.683516297E0,2.452426687E0
1.061709063E1,-2.946470732E0,-1.352742816E0,-2.777842587E0,4.269427636E0
1.062709962E1,-4.223209977E0,-1.458348209E0,-2.553315353E0,5.146037437E0
1.063710863E1,-4.894913553E0,-1.528822945E0,1.025018731E-2,5.128116940E0
1.064711763E1,-5.170622635E0,-1.411353552E0,2.432862711E0,5.886091934E0
1.065712662E1,-5.001555657E0,-1.448174638E0,3.713241556E0,6.395383618E0
1.066713563E1,-4.371030512E0,-1.944808484E0,4.616786063E0,6.648526253E0
1.067714463E1,-3.587199560E0,-2.463996795E0,5.109347323E0,6.711535663E0
1.068715263E1,-2.484832471E0,-2.343907265E0,5.116576821E0,6.152044541E0
1.069716162E1,-1.172910529E0,-1.833413179E0,4.279302609E0,4.800995086E0
1.070717062E1,2.166302767E-1,-1.454572662E0,3.110498579E0,3.440626646E0
1.071717963E1,9.790823472E-1,-1.358783575E0,2.559166954E0,3.058468660E0
1.072718862E1,1.016752157E0,-1.064362818E0,2.579800317E0,2.970189023E0
1.073719762E1,1.206332045E0,-8.216355407E-1,2.829039930E0,3.183361257E0
1.074720663E1,3.639692938E-1,-6.453741485E-1,2.786177501E0,2.883013442E0
1.075721562E1,-3.944286096E-1,-5.476765305E-1,3.007721778E0,3.082517445E0
1.076722463E1,-8.849874911E-1,-4.180016595E-1,4.165837390E0,4.279267391E0
1.077723363E1,-1.523138866E0,-1.166806036E-1,4.518266619E0,4.769517754E0
1.078724262E1,-1.814078483E0,9.913194001E-2,3.596243741E0,4.029103737E0
1.079725163E1,-1.869768535E0,3.094510245E-1,2.453320072E0,3.100092528E0
1.080726063E1,-1.538772567E0,5.188415712E-1,2.063156714E0,2.625572931E0
1.081726863E1,-1.134521220E0,6.188307130E-1,2.403426658E0,2.728836666E0
1.082727762E1,-9.883548617E-1,7.171744484E-1,3.009930271E0,3.248209470E0
1.083728662E1,-9.631507310E-1,8.694996786E-1,3.248819436E0,3.498359151E0
1.084729563E1,-1.007110098E0,1.157929378E0,3.104209314E0,3.462829286E0
1.085730462E1,-1.225123242E0,1.497519291E0,2.896157780E0,3.482990220E0
1.086731362E1,-1.627409340E0,1.844212402E0,2.822359779E0,3.743700744E0
1.087732263E1,-2.174671010E0,2.115088760E0,2.843696269E0,4.158052781E0
1.088733162E1,-2.603179531E0,2.262395325E0,2.777155247E0,4.428043309E0
1.089734063E1,-2.779539157E0,2.253742030E0,2.520367170E0,4.376921491E0
1.090734963E1,-2.833870023E0,2.127341600E0,2.214513353E0,4.178572840E0
1.091735862E1,-2.828592911E0,2.172021929E0,1.913047871E0,4.047019801E0
1.092736763E1,-2.669734002E0,2.251476234E0,1.686357459E0,3.878198854E0
1.093737663E1,-2.640601419E0,2.153345338E0,1.477082980E0,3.713683633E0
1.094738463E1,-2.500096043E0,1.947361963E0,1.400770676E0,3.464802639E0
1.095739362E1,-2.210458309E0,1.723637552E0,1.308822625E0,3.093552814E0
1.096740262E1,-1.883215084E0,1.523695521E0,1.133015562E0,2.674298293E0
1.097741163E1,-1.619099569E0,1.393012590E0,1.014258904E0,2.364463706E0
1.098742062E1,-1.436104816E0,1.291446455E0,9.888001272E-1,2.169782634E0
1.099742963E1,-1.243888711E0,1.067583464E0,7.252270876E-1,1.792469778E0
1.100743863E1,-9.467680022E-1,8.363974214E-1,2.445095086E-1,1.286745972E0
1.101744762E1,-7.022026527E-1,7.691380692E-1,-3.272408858E-1,1.091672356E0
1.102745663E1,-3.498804277E-1,8.027449411E-1,-8.017105687E-1,1.187247064E0
1.103746563E1,1.412506038E-1,8.305063516E-1,-1.178766223E0,1.448855529E0
1.104747462E1,8.745814937E-1,7.645860118E-1,-1.723651878E0,2.078571710E0
1.105748363E1,1.839012473E0,4.924296981E-1,-2.453039990E0,3.105134309E0
1.106749162E1,2.684574820E0,-7.969637990E-2,-3.513614105E0,4.422530673E0
1.107750063E1,3.196097431E0,-8.565469265E-1,-5.109037421E0,6.086951190E0
1.108750962E1,3.499302460E0,-1.582270589E0,-6.890137900E0,7.888136548E0
1.109751862E1,3.930409192E0,-2.192351528E0,-7.865350560E0,9.061912661E0
1.110752763E1,4.540033756E0,-2.576164518E0,-7.763751680E0,9.355446022E0
1.111753662E1,4.651388131E0,-2.328627321E0,-7.400610352E0,9.045825021E0
1.112754563E1,3.566695713E0,-1.753495190E0,-6.747283405E0,7.830829907E0
1.113755463E1,1.915782906E0,-7.329566681E-1,-5.006913460E0,5.410788484E0
1.114756362E1,5.572756121E-1,1.051902986E0,-2.388281054E0,2.668509395E0
1.115757263E1,-2.520322439E-1,2.903617365E0,-3.551704037E-1,2.936096060E0
1.116758163E1,-6.023865885E-1,4.158417565E0,7.510584784E-1,4.268418335E0
1.117759062E1,-5.335294846E-1,4.470166546E0,1.229262778E0,4.666704365E0
1.118759963E1,-1.990737194E-1,3.374053347E0,1.472134481E0,3.686603622E0
1.119760762E1,2.583744264E-1,1.148603654E0,1.455278420E0,1.871866176E0
1.120761663E1,7.103177109E-1,-1.375285587E0,9.875599328E-1,1.836092676E0
1.121762562E1,1.084163537E0,-3.673882778E0,7.161831991E-1,3.896888966E0
1.122763463E1,1.155830228E0,-5.946800167E0,1.129603711E0,6.162497893E0
1.123764363E1,6.060478225E-1,-8.042282628E0,1.838757534E0,8.272039235E0
1.124765262E1,-2.293935791E-1,-9.332827442E0,2.631781479E0,9.699513556E0
1.125766163E1,-1.411968971E0,-9.677991505E0,3.198069112E0,1.029003508E1
1.126767063E1,-2.919246388E0,-9.162112718E0,2.935621516E0,1.005406299E1
1.127767962E1,-3.882014126E0,-5.623718698E0,1.062808482E0,6.915620546E0
1.128768863E1,-4.534116374E0,-6.371705049E-1,-1.607461563E0,4.852641571E0
1.129769763E1,-4.871497501E0,2.993603091E0,-1.773328360E0,5.986471485E0
1.130770662E1,-5.466896374E0,4.854442050E0,-4.960695899E-1,7.327936177E0
1.131771563E1,-6.166616884E0,5.870036166E0,1.093777821E0,8.583754324E0
1.132772362E1,-5.589370984E0,6.333011684E0,2.409022443E0,8.783592324E0
1.133773263E1,-4.144644156E0,6.061352969E0,3.067051721E0,7.957693212E0
1.134774162E1,-3.041547043E0,4.642565267E0,3.721337610E0,6.682273138E0
1.135775063E1,-2.589364023E0,1.805583941E0,3.965933658E0,5.068882440E0
1.136775963E1,-2.023699118E0,-8.444151235E-1,3.913088862E0,4.485605807E0
1.137776862E1,-1.463823541E0,-3.230541624E0,4.023572001E0,5.363609810E0
1.138777763E1,-1.238610429E0,-4.992610586E0,4.239568148E0,6.665902365E0
1.139778663E1,-1.131780630E0,-5.465303593E0,4.492932680E0,7.164978354E0
1.140779562E1,-9.810411644E-1,-4.018881950E0,4.186482446E0,5.885617144E0
1.141780463E1,-2.619666633E-1,-1.706404054E0,2.734704169E0,3.234045179E0
1.142781363E1,1.704331800E-1,-4.275384682E-1,1.105407933E0,1.197398559E0
1.143782262E1,2.755178779E-2,1.682477832E-1,-1.104468687E-1,2.031377079E-1
1.144783062E1,-1.110453495E-1,3.846286762E-1,-7.841502106E-1,8.804327578E-1
1.145783962E1,-4.748898053E-1,1.454085588E-1,-8.990655398E-1,1.027123567E0
1.146784863E1,-9.684918702E-1,-1.006633258E-1,-1.623187065E-1,9.871458708E-1
1.147785762E1,-9.995926255E-1,-7.935548723E-2,4.344832063E-1,1.092821288E0
1.148786663E1,-1.152425979E0,-9.846067965E-2,2.202564093E-1,1.177409456E0
1.149787563E1,-9.503631628E-1,-1.028759122E-2,1.555002318E-1,9.630557085E-1
1.150788462E1,-5.728587341E-1,1.689512032E-1,-2.678437728E-2,5.978536955E-1
1.151789363E1,-1.492855552E-1,2.740402865E-1,-3.117612960E-1,4.411115067E-1
1.152790263E1,3.327092019E-1,2.978454709E-1,-5.395687813E-1,7.003868983E-1
1.153791162E1,6.515581638E-1,2.044730383E-1,-7.052806270E-1,9.817117841E-1
1.154792063E1,8.194466355E-1,1.057591742E-1,-6.426827482E-1,1.046765927E0
1.155792963E1,7.945070913E-1,1.171606600E-2,-2.801442315E-1,8.425316462E-1
1.156793862E1,3.467673701E-1,6.460120797E-2,1.472001457E-1,3.822156563E-1
1.157794662E1,-3.097767144E-1,1.224564832E-1,5.595340991E-1,6.511801680E-1
1.158795563E1,-6.117415488E-1,7.905552506E-2,1.061133474E0,1.227388181E0
1.159796463E1,-7.341582710E-1,6.541806400E-2,1.391150252E0,1.574346504E0
1.160797362E1,-7.195987040E-1,4.018498957E-2,1.530423328E0,1.691636099E0
1.161798263E1,-6.260417917E-1,1.203093857E-1,1.406872830E0,1.544569142E0
1.162799163E1,-5.031455979E-1,1.582548916E-1,1.056268444E0,1.180636748E0
1.163800062E1,-3.424798992E-1,1.403331757E-1,5.525408292E-1,6.650468025E-1
1.164800963E1,-1.342614269E-1,2.545795834E-1,8.982785046E-4,2.878153956E-1
1.165801863E1,1.232774323E-1,4.057102275E-1,-4.975698392E-1,6.537383719E-1
1.166802762E1,3.796842706E-1,5.832164919E-1,-8.391041706E-1,1.090136428E0
1.167803663E1,5.761349291E-1,6.920244044E-1,-1.037409493E0,1.373698543E0
1.168804563E1,7.376291782E-1,7.101934576E-1,-1.107193088E0,1.508094190E0
1.169805462E1,8.544121081E-1,7.214277130E-1,-1.108490147E0,1.574556573E0
1.170806262E1,9.194957113E-1,7.796466851E-1,-1.075188938E0,1.615349055E0
1.171807163E1,9.716926360E-1,8.129436547E-1,-9.462109087E-1,1.581258691E0
1.172808063E1,1.080431259E0,7.390149683E-1,-8.098364443E-1,1.539256280E0
1.173808962E1,1.292963515E0,5.736989790E-1,-7.141689795E-1,1.584589063E0
1.174809863E1,1.624970466E0,3.593207574E-1,-7.731540830E-1,1.835049770E0
1.175810763E1,1.935652037E0,1.377966535E-1,-1.034681913E0,2.199159700E0
1.176811662E1,2.215295710E0,-3.742861211E-2,-1.470426948E0,2.659152383E0
1.177812563E1,2.461347422E0,-1.244866365E-1,-1.907006527E0,3.116151786E0
1.178813463E1,2.752090280E0,-9.509502232E-2,-2.287414537E0,3.579847656E0
1.179814362E1,2.880922567E0,6.602032721E-2,-2.645198208E0,3.911668069E0
1.180815263E1,2.751483339E0,2.227362317E-1,-2.856372448E0,3.972296005E0
1.181816163E1,2.410516115E0,2.553824061E-1,-2.900653412E0,3.780158506E0
1.182816963E1,1.842457944E0,7.507181704E-2,-2.761834665E0,3.320845942E0
1.183817862E1,1.309879510E0,1.651721478E-2,-2.452512572E0,2.780445119E0
1.184818763E1,1.025912697E0,-1.039132082E-1,-1.909896514E0,2.170483704E0
1.185819663E1,8.002052030E-1,-3.476041067E-1,-9.991717722E-1,1.326461915E0
1.186820562E1,5.215201807E-1,-5.501890790E-1,-3.093264788E-1,8.187638195E-1
1.187821463E1,-1.085988745E-1,-9.075399095E-1,-5.717806537E-1,1.078125929E0
1.188822363E1,-6.852448502E-1,-1.021472906E0,-1.176940430E0,1.702397186E0
1.189823262E1,-1.191818963E0,-8.501699531E-1,-1.853320756E0,2.361783058E0
1.190824163E1,-1.722869813E0,-9.010828292E-1,-3.074550775E0,3.637731865E0
1.191825063E1,-1.910862766E0,-1.326404618E0,-4.210866505E0,4.810628072E0
1.192825962E1,-1.787601121E0,-1.880152897E0,-4.965953715E0,5.602784039E0
1.193826863E1,-1.064747272E0,-2.554781250E0,-4.832604454E0,5.569080696E0
1.194827763E1,1.851064754E-1,-3.165684308E0,-3.558413132E0,4.766353488E0
1.195828563E1,1.377519515E0,-3.196541820E0,-1.804671190E0,3.920749638E0
1.196829462E1,2.169335718E0,-2.801200460E0,-4.892102212E-1,3.576600077E0
1.197830363E1,2.737607019E0,-2.211109396E0,-5.111624229E-1,3.555950503E0
1.198831263E1,3.515684604E0,-1.584676718E0,-2.190617244E0,4.435092158E0
1.199832162E1,4.476395584E0,-1.521447267E0,-4.558134981E0,6.567306428E0
1.200833063E1,4.762647488E0,-1.976229667E0,-5.657168865E0,7.654531622E0
1.201833963E1,3.341286719E0,-2.295036821E0,-4.735630136E0,6.233585143E0
1.202834862E1,9.235873005E-1,-1.985741333E0,-2.806465877E0,3.559836072E0
1.203835763E1,-1.236324460E0,-1.811406013E0,-1.809114490E0,2.842988771E0
1.204836663E1,-2.905581445E0,-2.110618563E0,-1.515102453E0,3.897774968E0
1.205837562E1,-4.172216409E0,-2.946458160E0,-5.811021388E-1,5.140689171E0
1.206838463E1,-4.743622695E0,-3.735549853E0,1.144337525E0,6.145388299E0
1.207839363E1,-4.700151570E0,-3.744211333E0,2.915435758E0,6.679094920E0
1.208840163E1,-4.417788357E0,-3.320623829E0,4.758864048E0,7.293160056E0
1.209841062E1,-4.151153569E0,-3.431630879E0,5.980091289E0,8.047959883E0
1.210841996E1,-3.705239056E0,-3.734769250E0,6.166825629E0,8.105987673E0
1.211842896E1,-3.323999426E0,-3.149058335E0,4.304635963E0,6.284539073E0
1.212843796E1,-1.447448706E0,-1.907574584E0,3.145627774E0,3.953343224E0
1.213844696E1,6.884336293E-2,-1.087631228E0,1.857365859E0,2.153483000E0
1.214845596E1,7.983946127E-1,-8.135020638E-1,1.166222192E0,1.630734119E0
1.215846496E1,1.074828749E0,-6.927389342E-1,1.448065734E0,1.931848452E0
1.216847396E1,8.883853081E-1,-4.499204403E-1,2.430752158E0,2.626825635E0
1.217848296E1,4.134396619E-1,-2.240068316E-1,3.393004757E0,3.425433213E0
1.218849196E1,-5.778367612E-1,2.080322385E-2,3.594917592E0,3.641120788E0
1.219850096E1,-1.723727307E0,1.803404099E-1,3.257171014E0,3.689569285E0
1.220850996E1,-2.131081479E0,-4.260047436E-2,2.655115963E0,3.404844174E0
1.221851796E1,-2.375183145E0,2.393850088E-2,2.459882402E0,3.419515968E0
1.222852696E1,-2.843185807E0,1.215431482E-1,2.753319365E0,3.959702741E0
1.223853596E1,-3.071138047E0,1.702492851E-1,2.916042406E0,4.238416808E0
1.224854496E1,-3.047200716E0,4.366554469E-1,2.641551007E0,4.056339718E0
1.225855396E1,-2.860915149E0,9.127836925E-1,2.264221118E0,3.760944939E0
1.226856296E1,-2.592666530E0,1.402578050E0,2.127124084E0,3.635079338E0
1.227857196E1,-2.393575269E0,1.844232867E0,2.120170282E0,3.691276129E0
1.228858096E1,-2.292333361E0,2.216578297E0,2.095071109E0,3.815407519E0
1.229858996E1,-2.226064527E0,2.331073211E0,2.221744604E0,3.914768791E0
1.230859896E1,-2.276221066E0,2.235533216E0,2.302612474E0,3.934566724E0
1.231860796E1,-2.483149935E0,2.118232808E0,2.481398402E0,4.100034372E0
1.232861696E1,-2.764929889E0,2.065213180E0,2.710259299E0,4.388103034E0
1.233862596E1,-3.211877312E0,2.063861888E0,2.726513097E0,4.691434261E0
1.234863396E1,-3.735182940E0,2.171640691E0,2.577498268E0,5.031015027E0
1.235864296E1,-4.099395478E0,2.489961941E0,2.513467456E0,5.415022844E0
1.236865196E1,-4.150304261E0,2.846698229E0,2.462494353E0,5.602909486E0
1.237866096E1,-3.924683306E0,2.947149301E0,2.360633518E0,5.446229765E0
1.238866996E1,-3.546045394E0,2.893604593E0,2.287578698E0,5.116678784E0
1.239867896E1,-3.100659177E0,2.901519969E0,2.235059884E0,4.798791322E0
1.240868796E1,-2.646548622E0,2.804233995E0,2.267435625E0,4.473165794E0
1.241869696E1,-1.900074653E0,2.500800340E0,2.155510269E0,3.809266406E0
1.242870596E1,-1.120839905E0,1.798699429E0,1.663567936E0,2.694264279E0
1.243871496E1,-5.394167536E-1,9.183034641E-1,9.224669740E-1,1.408970193E0
1.244872396E1,4.052500516E-2,2.899277562E-1,1.530236802E-1,3.303280590E-1
1.245873296E1,8.952350289E-1,5.476268291E-2,-5.926022963E-1,1.074998693E0
1.246874196E1,2.185797384E0,-1.204777855E-1,-1.252625474E0,2.522160915E0
1.247875096E1,3.657489816E0,-4.976354742E-1,-2.088897765E0,4.241269467E0
1.248875896E1,5.206932675E0,-1.189095038E0,-3.534065326E0,6.404351069E0
1.249876796E1,6.804068055E0,-1.949602032E0,-5.869687672E0,9.195081487E0
1.250877696E1,8.559296944E0,-2.497736399E0,-7.859495158E0,1.188578628E1
1.251878596E1,9.867218513E0,-2.744014106E0,-7.235454576E0,1.253967374E1
1.252879496E1,1.020838951E1,-2.774482777E0,-6.017685378E0,1.217051800E1
1.253880396E1,9.111909109E0,-2.193504599E0,-7.754404321E0,1.216425651E1
1.254881296E1,6.253087263E0,-1.372890567E0,-9.878803017E0,1.177185958E1
1.255882196E1,3.791007770E0,2.121305519E-1,-6.932104536E0,7.903847961E0
1.256883096E1,2.665865776E0,1.957777024E0,-3.141728851E0,4.561818868E0
1.257883996E1,2.776805876E0,2.784779724E0,-1.284085833E0,4.136970560E0
1.258884896E1,2.790554142E0,2.523444852E0,-5.743789371E-1,3.805900354E0
1.259885796E1,1.982706043E0,1.109636639E0,5.624858467E-1,2.340685167E0
1.260886596E1,5.626085651E-1,-1.522010939E0,2.234402511E0,2.761448945E0
1.261887496E1,-7.120747992E-1,-4.804508582E0,3.452555140E0,5.959067900E0
1.262888396E1,-1.426816514E0,-7.157918158E0,4.252766483E0,8.447343989E0
1.263889296E1,-2.226092009E0,-8.126318811E0,4.645152075E0,9.621329475E0
1.264890196E1,-2.938646573E0,-8.792669261E0,4.533752092E0,1.031996049E1
1.265891096E1,-3.604446507E0,-8.833804423E0,4.091779772E0,1.038127145E1
1.266891996E1,-4.687048545E0,-6.517304812E0,2.627567976E0,8.446762666E0
1.267892896E1,-5.751356399E0,-1.658637564E0,4.376220647E-1,6.001724091E0
1.268893796E1,-6.490636246E0,2.295160782E0,-1.110501004E0,6.973473623E0
1.269894696E1,-6.539125451E0,4.271819050E0,-1.579698983E0,7.968942750E0
1.270895596E1,-5.977406248E0,5.216049653E0,-1.118139660E0,8.011666227E0
1.271896496E1,-5.277041960E0,5.740787557E0,-5.263510772E-1,7.815424433E0
1.272897396E1,-4.627920623E0,5.866726057E0,1.206432617E-1,7.473331166E0
1.273898296E1,-3.750061765E0,4.613036243E0,9.486452508E-1,6.020215481E0
1.274899096E1,-3.368004987E0,1.804140263E0,1.987337623E0,4.306726193E0
1.275899996E1,-2.670016130E0,-7.156921792E-1,2.940037333E0,4.035470350E0
1.276900896E1,-1.917690268E0,-2.563836833E0,3.421554372E0,4.685918223E0
1.277901796E1,-1.338412752E0,-3.678273452E0,3.860016024E0,5.497341902E0
1.278902696E1,-9.540422308E-1,-3.997916758E0,4.328679714E0,5.969171052E0
1.279903596E1,-9.751281676E-1,-3.107788687E0,5.189069431E0,6.126635865E0
1.280904496E1,3.060783505E-2,-1.403949223E0,5.082182329E0,5.272626241E0
1.281905396E1,7.856786728E-1,-5.877317119E-1,3.374954402E0,3.514688715E0
1.282906296E1,2.288170436E-1,-1.568720251E-1,2.116232475E0,2.134339701E0
1.283907196E1,-3.316593343E-1,2.548567414E-1,1.413953809E0,1.474522040E0
1.284908096E1,-2.687444633E-1,3.831551778E-1,9.067283159E-1,1.020386062E0
1.285908996E1,4.733768383E-1,3.245280701E-1,2.509419940E-1,6.263992207E-1
1.286909896E1,1.174941267E0,3.946461260E-2,-5.955085087E-1,1.317829587E0
1.287910696E1,1.438640753E0,-3.354606092E-2,-1.522003922E0,2.094590292E0
1.288911596E1,1.473809124E0,3.093703330E-2,-2.506704274E0,2.908029702E0
1.289912496E1,1.401526136E0,5.687177360E-2,-3.362534332E0,3.643370286E0
1.290913396E1,1.081424409E0,1.210069585E-1,-3.673599188E0,3.831377354E0
1.291914296E1,7.668784127E-1,1.589027631E-1,-3.039534724E0,3.138809316E0
1.292915196E1,2.049425697E-1,6.457898855E-2,-1.820884935E0,1.833519525E0
1.293916096E1,-3.170427570E-1,2.641830504E-2,-6.107627249E-1,6.886545888E-1
1.294916996E1,-5.280658463E-1,3.296718657E-2,3.994741720E-1,6.629630363E-1
1.295917896E1,-6.913996294E-1,1.806906581E-2,1.167144005E0,1.356681638E0
1.296918796E1,-7.933484656E-1,9.956229508E-2,1.733053908E0,1.908609517E0
1.297919696E1,-8.052320543E-1,3.376755345E-1,2.050916737E0,2.229054259E0
1.298920596E1,-6.673158252E-1,5.960289109E-1,2.050843647E0,2.237525539E0
1.299921496E1,-4.123871630E-1,5.177738696E-1,1.564586855E0,1.698848133E0
1.300922396E1,-1.754863438E-1,6.081589597E-1,9.012090560E-1,1.101285857E0
1.301923196E1,1.190206593E-1,8.844451618E-1,4.748044360E-1,1.010865181E0
1.302924096E1,4.581445491E-1,1.043098834E0,5.438085973E-2,1.140573927E0
1.303924996E1,9.164814717E-1,1.009041141E0,-6.910339592E-1,1.528276888E0
1.304925896E1,1.228783014E0,8.828827858E-1,-1.264138788E0,1.971658333E0
1.305926796E1,1.425390085E0,7.613413918E-1,-1.557609226E0,2.244442940E0
1.306927696E1,1.536142197E0,7.259125274E-1,-1.599785485E0,2.333665667E0
1.307928596E1,1.519129431E0,7.218054432E-1,-1.468079145E0,2.232490470E0
1.308929496E1,1.322503940E0,7.215750629E-1,-1.239730317E0,1.951055741E0
1.309930396E1,1.073799055E0,7.431746775E-1,-1.029181437E0,1.662698843E0
1.310931246E1,8.353498927E-1,7.626377195E-1,-8.705444299E-1,1.427330844E0
1.311932146E1,6.772514141E-1,8.047552139E-1,-8.019524972E-1,1.322659533E0
1.312933046E1,6.674017793E-1,6.903023994E-1,-8.432310623E-1,1.277881513E0
1.313933946E1,7.398555055E-1,4.156633580E-1,-1.022756663E0,1.328982087E0
1.314934846E1,9.517495376E-1,8.809298158E-2,-1.368286762E0,1.669070465E0
1.315935646E1,1.397589206E0,-1.875161129E-1,-1.880406959E0,2.350393204E0
1.316936546E1,1.864411608E0,-3.346870226E-1,-2.522448487E0,3.154487663E0
1.317937446E1,2.318383292E0,-2.852710336E-1,-3.144353958E0,3.917045119E0
1.318938346E1,2.635147721E0,-8.775910556E-2,-3.566289917E0,4.435101909E0
1.319939246E1,2.629566554E0,9.413724840E-2,-3.618374575E0,4.473937488E0
1.320940146E1,2.501630352E0,1.382053739E-1,-3.236949296E0,4.093298900E0
1.321941046E1,2.511484665E0,8.098335207E-2,-2.603065803E0,3.618019500E0
1.322941946E1,2.698979436E0,-1.346192765E-1,-1.961615136E0,3.339243370E0
1.323942846E1,2.846514627E0,-2.989891863E-1,-1.393185083E0,3.183238089E0
1.324943746E1,2.709021736E0,-3.028962958E-1,-9.958837366E-1,2.902124971E0
1.325944646E1,2.263207503E0,-3.621367764E-1,-9.687329216E-1,2.488311620E0
1.326945546E1,1.497959586E0,-5.848192137E-1,-1.429143998E0,2.151359803E0
1.327946446E1,4.748175922E-1,-8.959963363E-1,-2.519894715E0,2.716271444E0
1.328947246E1,-5.478963858E-1,-1.386087148E0,-4.097137576E0,4.359812421E0
1.329948146E1,-1.255926374E0,-2.183398272E0,-5.775469732E0,6.300843570E0
1.330949046E1,-1.393136844E0,-3.414410829E0,-6.550147453E0,7.516878556E0
1.331949946E1,-1.048145858E0,-4.505940980E0,-5.689194065E0,7.332737754E0
1.332950846E1,-5.650500700E-1,-4.562197627E0,-3.972937745E0,6.075949563E0
1.333951746E1,5.102727690E-1,-3.502942352E0,-2.555046129E0,4.365689423E0
1.334952646E1,2.209437385E0,-2.345403568E0,-2.074958588E0,3.832490651E0
1.335953546E1,3.961267872E0,-1.708061154E0,-2.396133572E0,4.934629891E0
1.336954446E1,5.439269450E0,-1.589125280E0,-2.799224101E0,6.320334395E0
1.337955346E1,6.136026006E0,-1.800648306E0,-2.657056069E0,6.924817428E0
1.338956246E1,5.213801984E0,-2.131158078E0,-2.239864249E0,6.061563967E0
1.339957146E1,2.782697823E0,-2.056093277E0,-2.053323451E0,4.023315043E0
1.340958046E1,1.462996745E-1,-2.214097908E0,-1.344369019E0,2.594409605E0
1.341958946E1,-1.831682403E0,-2.717398750E0,5.518952966E-2,3.277554313E0
1.342959746E1,-2.709820173E0,-2.806219125E0,1.865716707E0,4.324221315E0
1.343960646E1,-2.719293247E0,-2.460914143E0,3.491720960E0,5.063869020E0
1.344961546E1,-2.796382939E0,-2.438917503E0,4.325979470E0,5.699313511E0
1.345962446E1,-3.297279990E0,-3.165898317E0,4.942373064E0,6.732163024E0
1.346963346E1,-3.965120018E0,-3.290227078E0,5.310360564E0,7.399168893E0
1.347964246E1,-3.359575056E0,-2.779483316E0,4.627681764E0,6.358278900E0
1.348965146E1,-1.259661575E0,-2.177066322E0,3.241806285E0,4.103129665E0
1.349966046E1,8.791771129E-1,-1.457141343E0,2.168696033E0,2.756711043E0
1.350966946E1,1.859204662E0,-9.052361065E-1,1.389442281E0,2.491313757E0
1.351967846E1,1.644286450E0,-3.720226640E-1,1.476141432E0,2.240774938E0
1.352968746E1,1.695519462E0,1.378709131E-1,2.275903855E0,2.841396310E0
1.353969646E1,1.174752987E0,3.582004309E-2,2.284146236E0,2.568784087E0
1.354970546E1,7.860704362E-2,4.480604410E-2,3.213059034E0,3.214332747E0
1.355971446E1,-7.625508884E-1,1.107310617E-1,4.371688032E0,4.439076646E0
1.356972246E1,-1.544007287E0,1.997040492E-1,4.630024159E0,4.884768564E0
1.357973146E1,-2.162585692E0,3.254969537E-1,4.027963845E0,4.583363163E0
1.358974046E1,-2.467257495E0,3.290561539E-1,2.977985762E0,3.881241644E0
1.359974946E1,-2.747496415E0,3.241971177E-1,2.184496087E0,3.525033826E0
1.360975846E1,-2.975836034E0,4.688449538E-1,1.895602118E0,3.559314973E0
1.361976746E1,-2.797185469E0,8.321529275E-1,2.080017453E0,3.583740734E0
1.362977646E1,-2.756059955E0,1.168447934E0,2.455932316E0,3.872046047E0
1.363978546E1,-2.828324231E0,1.480790992E0,2.836174118E0,4.270368081E0
1.364979446E1,-2.822393985E0,1.674298162E0,3.108400891E0,4.520103786E0
1.365980346E1,-2.917532569E0,1.718218353E0,3.218645464E0,4.671610988E0
1.366981246E1,-3.000095839E0,1.712557079E0,3.351540689E0,4.813133260E0
1.367982146E1,-3.093160416E0,1.723359225E0,3.364474145E0,4.884392966E0
1.368983046E1,-3.151636373E0,1.909984807E0,3.305762838E0,4.950648617E0
1.369983946E1,-3.314647097E0,2.054956579E0,3.231181895E0,5.064609398E0
1.370984746E1,-3.802477668E0,2.091153182E0,2.953563697E0,5.249313913E0
1.371985646E1,-4.448031911E0,2.275690139E0,2.605786220E0,5.635057703E0
1.372986546E1,-4.810931456E0,2.578301091E0,2.436950792E0,5.977577030E0
1.373987446E1,-4.757916214E0,2.835069872E0,2.444691921E0,6.054081802E0
1.374988346E1,-4.273929603E0,2.889827877E0,2.510899359E0,5.737786594E0
1.375989246E1,-3.611951701E0,2.788870436E0,2.390377134E0,5.151494564E0
1.376990146E1,-3.025810139E0,2.666337939E0,2.131720872E0,4.561701314E0
1.377991046E1,-2.375783654E0,2.537751819E0,1.961763948E0,3.991622484E0
1.378991946E1,-1.516551101E0,2.283810167E0,1.538304790E0,3.143580403E0
1.379992846E1,-7.341807827E-1,1.730285836E0,6.820300511E-1,1.999518814E0
1.380993746E1,3.382573324E-1,1.305117245E0,-1.732433519E-1,1.359324209E0
1.381994646E1,1.743152342E0,1.058806794E0,-9.531556468E-1,2.251256894E0
1.382995546E1,3.218704521E0,6.168824208E-1,-1.847439772E0,3.762131899E0
1.383996346E1,4.767940388E0,3.720407903E-2,-3.422921451E0,5.869500060E0
1.384997246E1,6.332661436E0,-6.936686414E-1,-5.824533134E0,8.631857464E0
1.385998146E1,7.569386723E0,-1.766024019E0,-8.254740039E0,1.133821808E1
1.386999046E1,8.247870730E0,-2.904644721E0,-9.012024633E0,1.255710638E1
1.387999946E1,8.384451748E0,-3.797074841E0,-7.646072956E0,1.196575280E1
1.389000846E1,7.534260160E0,-3.539454705E0,-5.846858972E0,1.017244197E1
1.390001746E1,5.285109948E0,-2.773741350E0,-5.355447274E0,8.019154803E0
1.391002646E1,3.128996831E0,-1.667078605E0,-5.320208445E0,6.393308231E0
1.392003546E1,1.518564882E0,-1.858882481E-1,-3.887117869E0,4.177353117E0
1.393004446E1,9.189004648E-1,2.123064362E0,-2.031268923E0,3.078609067E0
1.394005346E1,1.278412426E0,3.895365951E0,-9.149418998E-1,4.200634822E0
1.395006246E1,1.585591515E0,3.636704426E0,2.959930730E-1,3.978357882E0
1.396007146E1,9.914924777E-1,1.619959987E0,2.146469450E0,2.866122606E0
1.397008046E1,4.953790337E-2,-1.843692584E0,4.202031362E0,4.588978526E0
1.398008846E1,-7.024067205E-1,-5.762127555E0,5.430647146E0,7.949051364E0
1.399009746E1,-1.251535115E0,-8.182412905E0,6.013615716E0,1.023141217E1
1.400010646E1,-1.739557766E0,-1.005943988E1,6.086441617E0,1.188541810E1
1.401011546E1,-2.433343352E0,-1.196655955E1,5.704799699E0,1.347829540E1
1.402012446E1,-2.644448887E0,-1.279781025E1,4.692065456E0,1.388497517E1
1.403013346E1,-3.116488760E0,-9.003474249E0,9.610284841E-1,9.575939980E0
1.404014246E1,-4.272056740E0,-1.597086264E0,-3.463454350E0,5.726837640E0
1.405015146E1,-5.476213912E0,2.921792266E0,-4.969462044E0,7.951184935E0
1.406016046E1,-6.257732291E0,4.727511277E0,-3.769944052E0,8.701784556E0
1.407016946E1,-6.523805162E0,5.450241750E0,-1.375524884E0,8.611459669E0
1.408017846E1,-6.208076566E0,6.046855382E0,3.967568978E-1,8.675372655E0
1.409018746E1,-5.518440165E0,6.509908084E0,1.028766065E0,8.595955138E0
1.410019646E1,-4.720379721E0,6.258956113E0,1.481418983E0,7.978165111E0
1.411020533E1,-3.890565095E0,4.597564511E0,2.439691089E0,6.498168111E0
1.412021333E1,-3.174782576E0,1.443144279E0,3.718929727E0,5.098269131E0
1.413022233E1,-2.515242670E0,-1.514669759E0,4.648592577E0,5.498189076E0
1.414023133E1,-2.142466885E0,-3.819713506E0,5.000834695E0,6.647459911E0
1.415024033E1,-1.686168887E0,-5.216529125E0,5.308267261E0,7.631057786E0
1.416024933E1,-1.081328514E0,-5.060019042E0,5.638294637E0,7.652674727E0
1.417025833E1,-5.877208945E-1,-3.244578450E0,5.446717633E0,6.367058830E0
1.418026733E1,-1.656545430E-1,-7.938998580E-1,5.503930299E0,5.563359340E0
1.419027633E1,7.205982855E-1,6.669176298E-1,4.899269729E0,4.996687391E0
1.420028533E1,1.450520833E0,6.359186161E-1,2.994335747E0,3.387395716E0
1.421029433E1,1.309762858E0,5.077470642E-1,1.637960640E0,2.157823182E0
1.422030333E1,1.175655797E0,3.928212100E-1,8.913133013E-1,1.526733263E0
1.423031233E1,1.401681380E0,2.170293492E-1,4.961760092E-1,1.502665319E0
1.424032133E1,2.027202477E0,1.091628385E-1,-2.669107765E-1,2.047610259E0
1.425033033E1,2.419549770E0,1.507763028E-1,-1.635897158E0,2.924570754E0
1.426033933E1,2.421857374E0,3.139498723E-1,-3.410452264E0,4.194656399E0
1.427034733E1,1.854392989E0,3.219283980E-1,-5.214421204E0,5.543699103E0
1.428035633E1,8.297570309E-1,-8.256853223E-3,-5.804519868E0,5.863532707E0
1.429036533E1,1.869705677E-2,-1.689862865E-1,-4.525864198E0,4.529056490E0
1.430037433E1,-5.443962425E-1,-1.648873883E-1,-2.260658702E0,2.331122666E0
1.431038333E1,-9.635907340E-1,-2.077679443E-1,-3.764642455E-1,1.055177686E0
1.432039233E1,-1.216519064E0,-8.716327429E-2,1.009312379E0,1.583106929E0
1.433040133E1,-1.211275281E0,1.464862007E-1,2.044942052E0,2.381267312E0
1.434041033E1,-1.101209340E0,4.088583684E-1,2.746385736E0,2.987049010E0
1.435041933E1,-9.123401812E-1,4.934266484E-1,3.041184808E0,3.213197706E0
1.436042833E1,-6.501112702E-1,6.069392306E-1,2.855216453E0,2.990531874E0
1.437043733E1,-2.413245302E-1,7.650637293E-1,2.320884438E0,2.455618988E0
1.438044633E1,2.147389948E-1,9.510671675E-1,1.769340559E0,2.020199893E0
1.439045533E1,7.013790724E-1,1.054534818E0,1.187758291E0,1.736302405E0
1.440046333E1,1.101656067E0,8.854567301E-1,3.371223879E-1,1.453042056E0
1.441047233E1,1.333408998E0,7.201845950E-1,-3.445822656E-1,1.554150039E0
1.442048133E1,1.529403866E0,7.155974543E-1,-9.351662493E-1,1.930205122E0
1.443049033E1,1.490485968E0,8.454383862E-1,-1.514465838E0,2.286902109E0
1.444049933E1,1.369027897E0,9.668277526E-1,-1.833317869E0,2.483958070E0
1.445050833E1,1.217670380E0,1.003899685E0,-1.927248711E0,2.490948278E0
1.446051733E1,9.187905371E-1,9.766563374E-1,-1.746710665E0,2.202051725E0
1.447052633E1,6.586043510E-1,9.531446832E-1,-1.438802575E0,1.847267530E0
1.448053533E1,4.899373224E-1,8.637565434E-1,-1.142666976E0,1.513869798E0
1.449054433E1,3.886983383E-1,6.688898957E-1,-9.123923676E-1,1.196227371E0
1.450055333E1,4.886775398E-1,3.090668625E-1,-8.164198244E-1,1.000434602E0
1.451056233E1,6.890662980E-1,5.289917529E-2,-8.614300825E-1,1.104387827E0
1.452057133E1,9.645742357E-1,3.860448718E-2,-1.009354552E0,1.396671176E0
1.453058033E1,1.462651759E0,2.164469665E-1,-1.273746933E0,1.951571343E0
1.454058933E1,2.017866813E0,4.816117644E-1,-1.627880625E0,2.636992927E0
1.455059733E1,2.374383976E0,6.240709877E-1,-2.001966479E0,3.167812123E0
1.456060633E1,2.529702250E0,6.517142844E-1,-2.369494096E0,3.526843809E0
1.457061533E1,2.626134823E0,5.531571257E-1,-2.603810738E0,3.739304384E0
1.458062433E1,2.802117888E0,2.448901623E-1,-2.562378830E0,3.804946927E0
1.459063333E1,2.949781718E0,-1.229295230E-1,-2.157695958E0,3.656771212E0
1.460064233E1,2.910596602E0,-2.803044087E-1,-1.564691227E0,3.316383841E0
1.461065133E1,2.508998721E0,-4.266754192E-1,-1.061271687E0,2.757430705E0
1.462066033E1,1.755602088E0,-7.914200538E-1,-1.064406087E0,2.200328319E0
1.463066933E1,1.001121672E0,-1.239525518E0,-1.748800752E0,2.365792084E0
1.464067833E1,4.136441682E-1,-1.649987193E0,-3.030686132E0,3.475430573E0
1.465068733E1,-5.347088680E-2,-2.153295636E0,-4.452086370E0,4.945767309E0
1.466069633E1,-1.726339258E-1,-3.074705726E0,-5.296119670E0,6.126377505E0
1.467070533E1,1.705328751E-1,-4.091331291E0,-4.854254939E0,6.350737296E0
1.468071433E1,8.068565570E-1,-4.381250276E0,-3.471748626E0,5.647956268E0
1.469072233E1,1.770456939E0,-3.731634557E0,-2.234713729E0,4.696121771E0
1.470073133E1,3.167232359E0,-2.923471001E0,-1.845723322E0,4.688788553E0
1.471074033E1,4.772993259E0,-2.414231728E0,-2.208861142E0,5.786972182E0
1.472074933E1,6.169556864E0,-2.135812461E0,-2.544679016E0,7.007176183E0
1.473075833E1,6.997093999E0,-1.804148449E0,-2.350149022E0,7.598518045E0
1.474076733E1,6.502500247E0,-1.610535445E0,-1.851233007E0,6.950064570E0
1.475077633E1,4.326948646E0,-1.358873622E0,-1.719540262E0,4.850344402E0
1.476078533E1,1.309086627E0,-1.307489460E0,-2.558088436E0,3.157063973E0
1.477079433E1,-1.195041071E0,-1.533981358E0,-2.775014289E0,3.388499118E0
1.478080333E1,-2.707407320E0,-1.771752536E0,-1.042176143E0,3.399307658E0
1.479081233E1,-3.355616491E0,-1.902082295E0,1.265829803E0,4.059606407E0
1.480082133E1,-3.240492708E0,-1.878333828E0,3.078254986E0,4.848152712E0
1.481083033E1,-2.897790030E0,-1.485985658E0,4.225958169E0,5.335172244E0
1.482083933E1,-2.599676464E0,-1.632499925E0,4.663221141E0,5.582920843E0
1.483084733E1,-2.433344814E0,-1.983495417E0,4.879046549E0,5.801768375E0
1.484085633E1,-1.826568721E0,-1.890884877E0,4.716790992E0,5.399992238E0
1.485086533E1,-3.337865514E-1,-1.667314247E0,3.905640678E0,4.259739355E0
1.486087433E1,7.744906104E-1,-1.261818028E0,2.617566898E0,3.007270674E0
1.487088333E1,1.295154174E0,-8.015129328E-1,1.689143804E0,2.274434898E0
1.488089233E1,1.290263270E0,-5.409229964E-1,1.879524175E0,2.343072368E0
1.489090133E1,1.317930833E0,-4.568605006E-1,2.479563253E0,2.844977526E0
1.490091033E1,1.314405547E0,-7.166002518E-1,2.826990774E0,3.198914612E0
1.491091933E1,3.274125016E-1,-5.987887967E-1,3.030068374E0,3.105971880E0
1.492092833E1,-2.911875388E-1,-1.227131760E-1,3.133051583E0,3.148946002E0
1.493093733E1,-6.117152363E-1,4.035602063E-1,3.517207511E0,3.592743388E0
1.494094633E1,-1.214573110E0,5.716062605E-1,3.468313679E0,3.719021556E0
1.495095533E1,-1.720735579E0,2.547152388E-1,3.649262784E0,4.042638946E0
1.496096433E1,-1.929722960E0,-6.441058874E-2,3.506703866E0,4.003117713E0
1.497097333E1,-1.980458958E0,-2.370700961E-1,3.180528342E0,3.754221684E0
1.498098133E1,-1.901519208E0,-1.505897766E-1,2.992288929E0,3.548555426E0
1.499099033E1,-1.855767669E0,1.173395848E-1,2.884517728E0,3.431921436E0
1.500099933E1,-1.825658017E0,4.647945875E-1,3.013771892E0,3.554135931E0
1.501100833E1,-1.978959732E0,6.690115178E-1,3.201997856E0,3.823172544E0
1.502101733E1,-2.162346249E0,8.215852547E-1,3.309353613E0,4.037643492E0
1.503102633E1,-2.210884278E0,9.217568296E-1,3.383380240E0,4.145468224E0
1.504103533E1,-2.240908854E0,1.036333605E0,3.279073222E0,4.104629219E0
1.505104433E1,-2.403228437E0,1.098208256E0,3.028763275E0,4.019325226E0
1.506105333E1,-2.737465224E0,1.271770574E0,2.653368230E0,4.018890296E0
1.507106233E1,-2.907581778E0,1.543640374E0,2.508711623E0,4.138899782E0
1.508107133E1,-3.401438196E0,1.819666960E0,2.318901355E0,4.500919144E0
1.509108033E1,-4.157039961E0,2.141498879E0,2.006238455E0,5.088417379E0
1.510108933E1,-4.596373141E0,2.508921538E0,1.862756261E0,5.557984726E0
1.511110146E1,-4.480810817E0,2.715381460E0,1.817794096E0,5.545749492E0
1.512111046E1,-4.097724051E0,2.609680173E0,1.803712539E0,5.182195667E0
1.513111846E1,-3.463206428E0,2.555627927E0,1.615523704E0,4.597276336E0
1.514112746E1,-2.508305241E0,2.406005865E0,1.596746833E0,3.824926124E0
1.515113646E1,-1.766769831E0,2.174949630E0,1.489816169E0,3.173552228E0
1.516114546E1,-1.254038015E0,1.948409200E0,1.009756840E0,2.527551905E0
1.517115446E1,-7.856611311E-1,1.656947719E0,2.761523008E-1,1.854453895E0
1.518116346E1,-2.489507613E-1,1.329826993E0,-4.196929666E-1,1.416530444E0
1.519117246E1,4.992794189E-1,1.054539496E0,-9.594175762E-1,1.510567963E0
1.520118146E1,1.635360968E0,7.369450539E-1,-1.411301219E0,2.282381353E0
1.521119046E1,2.810890465E0,2.661143857E-1,-1.913841630E0,3.410969343E0
1.522119946E1,3.640492253E0,-3.513153344E-1,-2.653708245E0,4.518713728E0
1.523120846E1,4.121787390E0,-8.484070176E-1,-3.451515798E0,5.442599293E0
1.524121746E1,4.507296365E0,-9.468279362E-1,-4.388926208E0,6.361986869E0
1.525122646E1,4.715092376E0,-1.007899765E0,-4.916078135E0,6.885911870E0
1.526123546E1,4.921551129E0,-1.187887588E0,-4.637133496E0,6.865548011E0
1.527124346E1,4.444297879E0,-1.588310178E0,-4.192166232E0,6.312588263E0
1.528125246E1,3.637517774E0,-1.798500624E0,-3.954961942E0,5.666380151E0
1.529126146E1,2.823214349E0,-1.399680755E0,-3.862456652E0,4.984798578E0
1.530127046E1,2.006990114E0,-3.978825599E-1,-3.571439267E0,4.116005137E0
1.531127946E1,1.593962681E0,1.005689517E0,-2.429313451E0,3.074685720E0
1.532128846E1,1.214931837E0,2.414941580E0,-9.087355189E-1,2.851982196E0
1.533129746E1,6.823764986E-1,3.199753695E0,2.380496509E-1,3.280355016E0
1.534130646E1,-8.457120359E-3,2.843433144E0,9.516387329E-1,2.998466249E0
1.535131546E1,-7.140280616E-1,1.915273613E0,1.701144191E0,2.659323343E0
1.536132446E1,-1.277604049E0,6.761041903E-1,2.561523382E0,2.941222708E0
1.537133346E1,-1.789010885E0,-7.917890131E-1,3.125975282E0,3.687710842E0
1.538134246E1,-1.977233342E0,-2.605953743E0,3.522655070E0,4.807238848E0
1.539135146E1,-1.742407115E0,-4.822653077E0,4.031734422E0,6.522947777E0
1.540136046E1,-1.460159091E0,-6.921408809E0,4.374477446E0,8.317091884E0
1.541136946E1,-1.302378994E0,-8.527422017E0,4.188724269E0,9.589500941E0
1.542137746E1,-1.405836996E0,-9.831920042E0,3.445895162E0,1.051271720E1
1.543138646E1,-1.061171992E0,-1.048287653E1,1.517682391E0,1.064519357E1
1.544139546E1,-2.535162672E-1,-9.624527489E0,-4.297428685E0,1.054341943E1
1.545140446E1,-4.300068703E-1,-4.698002719E0,-1.136500268E1,1.230525991E1
1.546141346E1,-1.806117207E0,5.476502180E-1,-1.047161713E1,1.064033578E1
1.547142246E1,-2.730120244E0,3.394959481E0,-4.758762306E0,6.451753646E0
1.548143146E1,-3.310676253E0,4.492829769E0,-7.464078954E-1,5.630561369E0
1.549144046E1,-3.888645161E0,4.419246068E0,2.572079068E0,6.423930863E0
1.550144946E1,-4.189777937E0,4.327917822E0,5.173975428E0,7.940726262E0
1.551145846E1,-3.775688357E0,4.691729826E0,6.538876945E0,8.889604211E0
1.552146746E1,-3.341498096E0,4.572635491E0,7.505536298E0,9.402535827E0
1.553147646E1,-2.646801807E0,2.897625139E0,7.363185833E0,8.343757957E0
1.554148546E1,-1.348812903E0,6.487421447E-1,6.497872760E0,6.668021673E0
1.555149446E1,-1.212744686E-1,-1.070427550E0,6.026828084E0,6.122350806E0
1.556150346E1,6.493435308E-1,-2.190462293E0,6.056011537E0,6.472638397E0
1.557151146E1,7.066906831E-1,-2.708753057E0,6.225610027E0,6.826051205E0
1.558152046E1,3.781783202E-1,-2.315619020E0,6.349036564E0,6.768705606E0
1.559152946E1,6.065112144E-2,-1.185972040E0,5.915549723E0,6.033567499E0
1.560153846E1,-3.991353258E-1,-1.726881588E-1,5.047763278E0,5.066462703E0
1.561154746E1,-4.108166009E-1,2.480032200E-1,4.472177403E0,4.497849108E0
1.562155646E1,8.434608579E-3,4.258497924E-1,4.227105392E0,4.248510231E0
1.563156546E1,9.193577170E-3,2.031533217E-1,3.284356474E0,3.290646326E0
1.564157446E1,6.893197748E-1,-2.909989661E-1,2.151923879E0,2.278292899E0
1.565158346E1,1.207329872E0,-6.962455094E-1,7.297933245E-1,1.573213757E0
1.566159246E1,1.035255671E0,-8.233785957E-1,-1.637554843E0,2.105063534E0
1.567160146E1,6.379259652E-1,-1.011952470E0,-7.462075113E0,7.557351542E0
1.568161046E1,-1.877371377E-1,-1.219210537E0,-1.429735677E1,1.435047492E1
1.569161946E1,-9.215995395E-1,-9.405603057E-1,-1.210704943E1,1.217845004E1
1.570162846E1,-7.471823591E-1,-3.691183519E-1,-5.748722228E0,5.808815464E0
1.571163646E1,-7.772142434E-1,-1.750673908E-1,-2.071407135E0,2.219332803E0
1.572164546E1,-9.668110880E-1,1.347204334E-1,3.149696267E-1,1.025709092E0
1.573165446E1,-7.341930619E-1,2.539089078E-1,1.895408283E0,2.048433974E0
1.574166346E1,-7.715898067E-2,3.235433990E-1,2.735848469E0,2.755993593E0
1.575167246E1,4.254135901E-1,4.903650463E-1,3.093706838E0,3.161084719E0
1.576168146E1,4.886623371E-1,6.344316691E-1,3.137567972E0,3.238151819E0
1.577169046E1,5.004243037E-1,8.229488254E-1,3.029319638E0,3.178749239E0
1.578169946E1,7.264548567E-1,9.770855230E-1,2.891919426E0,3.137774808E0
1.579170846E1,1.022506694E0,1.251635102E0,2.762005404E0,3.200122532E0
1.580171746E1,1.301231185E0,1.529662020E0,2.694105781E0,3.360249166E0
1.581172646E1,1.715648794E0,1.590497621E0,2.479981329E0,3.409316773E0
1.582173546E1,1.984066105E0,1.271681111E0,1.601658202E0,2.849385926E0
1.583174446E1,1.967590114E0,9.889354903E-1,5.446003103E-1,2.268478291E0
1.584175346E1,1.837046931E0,7.912873220E-1,-5.307921837E-1,2.069448573E0
1.585176246E1,1.389182079E0,6.239382559E-1,-1.663062152E0,2.254972621E0
1.586177046E1,5.846025744E-1,5.516883051E-1,-2.767401799E0,2.881775993E0
1.587177946E1,-2.607940042E-1,3.886796272E-1,-3.746403455E0,3.775529659E0
1.588178846E1,-8.498287681E-1,1.456939030E-1,-4.371429877E0,4.455652008E0
1.589179746E1,-1.107306816E0,8.723227143E-2,-4.311690629E0,4.452461559E0
1.590180646E1,-1.045659622E0,-7.595357716E-2,-3.528980588E0,3.681423227E0
1.591181546E1,-7.297433308E-1,-2.030884176E-1,-2.478476256E0,2.591643259E0
1.592182446E1,-2.448302284E-1,-1.273359847E-1,-1.566615838E0,1.590736144E0
1.593183346E1,4.084326911E-1,7.750191987E-2,-9.013465387E-1,9.925972967E-1
1.594184246E1,9.680346179E-1,3.032927370E-1,-4.042501777E-1,1.092014520E0
1.595185146E1,1.397947640E0,4.410911447E-1,-1.016143754E-2,1.465920277E0
1.596186046E1,1.719419663E0,5.167611319E-1,2.633917759E-1,1.814613257E0
1.597186946E1,2.027460047E0,5.178153849E-1,2.559225427E-1,2.108132672E0
1.598187846E1,2.384173823E0,4.115521806E-1,1.260469660E-2,2.419466655E0
1.599188746E1,2.777235646E0,1.999806225E-1,-3.932876717E-1,2.812064238E0
1.600189646E1,3.127144725E0,-4.809100986E-2,-9.630791026E-1,3.272440715E0
1.601190446E1,3.296137736E0,-2.071586645E-1,-1.703225069E0,3.715967481E0
1.602191346E1,3.193505360E0,-2.749998146E-1,-2.572237820E0,4.109806418E0
1.603192246E1,2.708700432E0,-4.966899794E-1,-3.550850928E0,4.493584458E0
1.604193146E1,1.978961340E0,-1.003595045E0,-4.518025713E0,5.033492559E0
1.605194046E1,1.264198576E0,-1.726623725E0,-5.196849736E0,5.620202372E0
1.606194946E1,9.462639722E-1,-2.601460158E0,-5.154611789E0,5.850900200E0
1.607195846E1,1.324252258E0,-3.500744383E0,-4.314409584E0,5.711653468E0
1.608196746E1,2.110343744E0,-4.070678340E0,-3.224019640E0,5.605200755E0
1.609197646E1,3.021873794E0,-3.813103813E0,-2.559636194E0,5.497564857E0
1.610198546E1,4.068186842E0,-2.967801667E0,-2.536436781E0,5.638395379E0
1.611199183E1,5.293304821E0,-2.186133599E0,-3.117140724E0,6.520339127E0
1.612200083E1,6.467353218E0,-1.730747766E0,-3.712301323E0,7.655280961E0
1.613200983E1,7.037942648E0,-1.618772417E0,-3.935935103E0,8.224636526E0
1.614201883E1,6.532703454E0,-1.843219544E0,-4.016827823E0,7.887241500E0
1.615202783E1,5.106897340E0,-1.899461573E0,-3.575345500E0,6.517012364E0
1.616203583E1,2.573234186E0,-1.839711800E0,-1.777852351E0,3.628613050E0
1.617204483E1,9.977688789E-2,-2.082641391E0,1.556347360E-1,2.090830639E0
1.618205383E1,-1.581653415E0,-2.434432104E0,1.811749245E0,3.422064073E0
1.619206283E1,-2.611787802E0,-2.453120974E0,3.325830774E0,4.888802346E0
1.620207183E1,-2.699619121E0,-2.434388250E0,4.593911755E0,5.858175037E0
1.621208083E1,-2.924703010E0,-2.819821503E0,5.238072606E0,6.628927940E0
1.622208983E1,-3.625752007E0,-3.586563383E0,5.479246863E0,7.485429894E0
1.623209883E1,-4.380703269E0,-3.861863160E0,5.455467407E0,7.991662707E0
1.624210783E1,-4.664124244E0,-3.621136215E0,4.105380396E0,7.191719588E0
1.625211683E1,-3.230572907E0,-3.068425816E0,2.342836640E0,5.033956875E0
1.626212583E1,-9.354542246E-1,-1.939947694E0,1.445092278E0,2.593600462E0
1.627213483E1,8.526939037E-1,-1.072196333E0,1.140234242E0,1.782365281E0
1.628214383E1,1.892406322E0,-6.848633194E-1,2.018290151E0,2.850216586E0
1.629215283E1,2.085890104E0,-4.054283917E-1,3.183762145E0,3.827747523E0
1.630216183E1,2.615362790E0,-9.246260583E-2,3.725772139E0,4.553026454E0
1.631216983E1,1.884718111E0,3.249929237E-1,3.562936538E0,4.043797662E0
1.632217883E1,7.624862766E-1,6.981142795E-1,3.780955821E0,3.919741802E0
1.633218783E1,-1.995368189E-1,9.266205436E-1,4.376918659E0,4.478376661E0
1.634219683E1,-1.125076212E0,8.408910066E-1,4.362006797E0,4.582575418E0
1.635220583E1,-1.706405808E0,5.717764145E-1,3.958855603E0,4.348710928E0
1.636221483E1,-2.172267512E0,3.570111072E-1,3.601817307E0,4.221290204E0
1.637222383E1,-2.513806010E0,2.751313770E-1,3.201647608E0,4.079885456E0
1.638223283E1,-2.680440838E0,3.965727836E-1,2.865999888E0,3.944108064E0
1.639224183E1,-2.652379173E0,6.617609704E-1,2.752877608E0,3.879610545E0
1.640225083E1,-2.599587294E0,8.988965553E-1,2.943485728E0,4.028644605E0
1.641225983E1,-2.483717407E0,1.117026350E0,3.233185151E0,4.227302479E0
1.642226883E1,-2.413864815E0,1.369354756E0,3.679016633E0,4.608366216E0
1.643227783E1,-2.521179056E0,1.458258746E0,4.038518362E0,4.979206057E0
1.644228683E1,-2.754878525E0,1.521571813E0,4.117728253E0,5.182684867E0
1.645229583E1,-2.963595180E0,1.737396635E0,4.001913038E0,5.274158835E0
1.646230483E1,-3.211756567E0,1.825884889E0,3.859659344E0,5.342864973E0
1.647231283E1,-3.673843894E0,1.833705540E0,3.582465654E0,5.449189401E0
1.648232183E1,-4.207966286E0,1.910941996E0,2.962277802E0,5.489423408E0
1.649233083E1,-4.555757504E0,2.024448146E0,2.354980430E0,5.513551446E0
1.650233983E1,-4.577001607E0,2.169713448E0,1.882837354E0,5.403857572E0
1.651234883E1,-4.225689781E0,2.369663665E0,1.565023349E0,5.091272739E0
1.652235783E1,-3.580331420E0,2.350718687E0,1.376062682E0,4.498688690E0
1.653236683E1,-2.906280480E0,2.072132190E0,1.344137469E0,3.814040322E0
1.654237583E1,-2.546192275E0,1.769241741E0,1.301218321E0,3.362511050E0
1.655238483E1,-2.375046612E0,1.484857730E0,9.867983329E-1,2.969750804E0
