"Time (s)","Linear Acceleration x (m/s^2)","Linear Acceleration y (m/s^2)","Linear Acceleration z (m/s^2)","Absolute acceleration (m/s^2)"
3.061916665E-3,9.523513623E-2,4.017838222E-1,4.946528095E-1,6.443456936E-1
1.304991667E-2,3.933991342E-1,5.981725001E-1,5.204606652E-1,8.851285346E-1
2.303791667E-2,6.621014976E-1,7.402329433E-1,5.535471350E-1,1.136986207E0
3.302591667E-2,7.344390835E-1,9.024311972E-1,5.077979350E-1,1.269504461E0
4.301291667E-2,5.253900873E-1,9.215849215E-1,4.097132313E-1,1.137197627E0
5.300091667E-2,8.767033752E-1,7.654666024E-1,-1.860700965E-1,1.178630565E0
6.298891667E-2,1.069430161E0,9.602560669E-1,-4.723012429E-1,1.512891618E0
7.297691666E-2,1.268477422E0,1.361015457E0,-8.014269787E-1,2.025754982E0
8.296533333E-2,1.418230754E0,1.687465507E0,-8.866179872E-1,2.375922929E0
9.295333333E-2,1.381877591E0,1.716030909E0,-6.725221860E-1,2.303613216E0
1.029413333E-1,1.223597118E0,1.575807661E0,-3.014742529E-1,2.017732990E0
1.129293333E-1,1.025392149E0,1.392827234E0,2.571418333E-1,1.748576188E0
1.229173333E-1,8.884447304E-1,1.256323400E0,1.026098639E0,1.849475855E0
1.329053333E-1,9.929536968E-1,1.157377401E0,1.633161246E0,2.234433966E0
1.428933333E-1,1.263681536E0,1.112228710E0,2.130066987E0,2.714982338E0
1.528813333E-1,1.436937021E0,1.151664087E0,2.382747980E0,3.011412643E0
1.628693333E-1,1.467744684E0,1.193167039E0,2.284836938E0,2.966210019E0
1.728573333E-1,1.417491374E0,1.173649617E0,2.084794335E0,2.780845670E0
1.828443333E-1,1.341080252E0,1.298517492E0,1.811960329E0,2.601508054E0
1.928323333E-1,1.418436576E0,1.521975855E0,1.779530502E0,2.737718326E0
2.028203333E-1,1.415518523E0,1.494963473E0,1.868289481E0,2.780128426E0
2.128083333E-1,1.307086879E0,1.405277125E0,1.778998405E0,2.616890375E0
2.227963333E-1,1.135290055E0,1.481021957E0,1.881075588E0,2.649670718E0
2.327843333E-1,8.347422208E-1,1.601693285E0,1.950474436E0,2.658301428E0
2.427723333E-1,1.024370056E0,1.714027069E0,2.220286601E0,2.986117110E0
2.527603333E-1,1.453470169E0,1.543571962E0,2.723828348E0,3.451728669E0
2.627483333E-1,1.753386431E0,1.390049222E0,2.927036049E0,3.684310091E0
2.727363333E-1,1.784271424E0,1.734830292E0,3.146929072E0,4.012034801E0
2.827243333E-1,1.764364286E0,2.336802898E0,3.456630357E0,4.530112862E0
2.927123333E-1,1.896456396E0,3.136637680E0,4.247637305E0,5.610478186E0
3.027003333E-1,2.524841167E0,3.487147268E0,5.725472530E0,7.163522505E0
3.126873333E-1,3.460271711E0,3.272424645E0,7.189252802E0,8.623665069E0
3.226753333E-1,4.381194143E0,3.014307497E0,8.290458341E0,9.849498023E0
3.326633333E-1,4.366518508E0,2.555425029E0,8.656016323E0,1.002613084E1
3.426513333E-1,3.696037293E0,2.103673825E0,8.897795767E0,9.861891540E0
3.526393333E-1,2.683906483E0,1.298092985E0,8.476838340E0,8.985832607E0
3.626273333E-1,1.703161042E0,-6.990287840E-2,7.999916042E0,8.179504913E0
3.726153333E-1,1.413500211E0,-1.415581089E0,7.755926936E0,8.009760002E0
3.826033333E-1,1.024168107E0,-2.252125275E0,7.407639289E0,7.809872496E0
3.925913333E-1,4.321257551E-1,-2.753735687E0,6.796968366E0,7.346330504E0
4.025793333E-1,1.981777432E-1,-3.422707443E0,5.677005544E0,6.631937319E0
4.125673333E-1,1.662010384E-1,-4.245724096E0,4.165955796E0,5.950544814E0
4.225553333E-1,-1.393045773E-1,-4.891402300E0,2.850572594E0,5.663125139E0
4.325433333E-1,-9.077414192E-1,-5.279718815E0,2.220077856E0,5.798980163E0
4.425313333E-1,-1.864241600E0,-5.828648989E0,1.484578672E0,6.297024663E0
4.525183333E-1,-2.404851040E0,-6.386422491E0,6.645512617E-1,6.856480813E0
4.625063333E-1,-2.807476276E0,-6.459536076E0,-3.602615744E-2,7.043353409E0
4.724943333E-1,-3.262328843E0,-6.481681820E0,-1.257822918E0,7.364584658E0
4.824823333E-1,-3.009352566E0,-6.139254254E0,-2.233637549E0,7.192759022E0
4.924703333E-1,-2.418093521E0,-5.706577252E0,-2.077840534E0,6.536789847E0
5.024583333E-1,-2.252073673E0,-5.746938828E0,-1.630275645E0,6.384116258E0
5.124463333E-1,-2.106888624E0,-5.765506076E0,-9.505108050E-1,6.211562668E0
5.224343333E-1,-2.113677534E0,-5.704683924E0,-5.159793591E-1,6.105512762E0
5.324223333E-1,-2.171326110E0,-5.607380993E0,-2.800661346E-1,6.019619233E0
5.424103333E-1,-2.196480247E0,-5.410312868E0,-1.160011572E-1,5.840331076E0
5.523983333E-1,-2.243173480E0,-5.297705435E0,-5.140953863E-1,5.775967816E0
5.623863333E-1,-2.255535956E0,-5.046961040E0,-1.064546421E0,5.629610757E0
5.723743333E-1,-2.390501388E0,-4.474847826E0,-1.135646809E0,5.198889653E0
5.823623333E-1,-2.387395347E0,-3.971481496E0,-1.143392031E0,4.772804956E0
5.923493333E-1,-2.078385495E0,-3.772879062E0,-8.729413497E-1,4.395034617E0
6.023373333E-1,-1.861124596E0,-3.514750804E0,-3.625036892E-1,3.993578207E0
6.123253333E-1,-1.572162507E0,-3.085281585E0,-3.797582379E-1,3.483514565E0
6.223133333E-1,-1.183956504E0,-2.528757048E0,-8.720256758E-1,2.925199820E0
6.323013333E-1,-5.005938730E-1,-2.204883281E0,-1.081391079E0,2.506294311E0
6.422893333E-1,-1.127036199E-1,-1.697138556E0,-7.735492086E-1,1.868518066E0
6.522773333E-1,-5.366048276E-2,-1.725875282E0,-1.432181919E-1,1.732638562E0
6.622653333E-1,-2.532110426E-1,-2.242448718E0,3.266213733E-1,2.280213500E0
6.722533333E-1,-6.499557343E-1,-2.567608872E0,3.429982549E-1,2.670712560E0
6.822413333E-1,-1.182721573E0,-2.760195106E0,2.773229134E-1,3.015694835E0
6.922293333E-1,-1.620590024E0,-2.859546901E0,1.648973286E-2,3.286881868E0
7.022173333E-1,-1.784295983E0,-2.707347386E0,-3.744808334E-1,3.263997230E0
7.122053333E-1,-1.267663490E0,-2.378539154E0,-1.386832668E0,3.031125876E0
7.221933333E-1,-2.271184275E-1,-1.842478702E0,-2.159491931E0,2.847756300E0
7.321813333E-1,6.507690820E-1,-1.386362552E0,-1.998763667E0,2.518046409E0
7.421683333E-1,1.145827981E0,-1.203733542E0,-9.844103301E-1,1.931569284E0
7.521563333E-1,1.309716665E0,-1.190086725E0,4.393170995E-1,1.823366027E0
7.621443333E-1,1.453241251E0,-1.487806481E0,1.416644112E0,2.516417851E0
7.721323333E-1,1.442781751E0,-2.047396129E0,1.596852960E0,2.970419072E0
7.821203333E-1,1.178725293E0,-2.384983370E0,1.742615275E0,3.180290394E0
7.921083333E-1,1.175660475E0,-2.424332208E0,1.745595601E0,3.210400008E0
8.020963333E-1,1.484557476E0,-2.421112731E0,1.595922668E0,3.257708845E0
8.120843333E-1,2.198037653E0,-2.429701706E0,1.922310737E0,3.798696945E0
8.220723333E-1,2.911857554E0,-2.233249878E0,2.362769798E0,4.364516073E0
8.320603333E-1,3.608451557E0,-2.172416616E0,1.999218580E0,4.662316112E0
8.420483333E-1,3.941365120E0,-1.824870397E0,1.794546736E0,4.699458369E0
8.520363333E-1,3.778043323E0,-1.597365761E0,2.179701077E0,4.645028042E0
8.620243333E-1,3.142761177E0,-1.859067253E0,2.734273229E0,4.561724340E0
8.720113333E-1,2.217894798E0,-1.644358079E0,2.492073371E0,3.719327965E0
8.819993333E-1,9.602858877E-1,-7.998160708E-1,2.927297419E-1,1.283567464E0
8.919873333E-1,2.925800532E-2,4.861094427E-1,-2.284326476E0,2.335659623E0
9.019753333E-1,-1.274900588E-1,1.710110604E0,-2.496203259E0,3.028491820E0
9.119633333E-1,2.390116641E-1,2.520608953E0,-9.353317255E-1,2.699155702E0
9.219513333E-1,7.853161454E-1,3.593063732E0,-6.984136569E-1,3.743609230E0
9.319393333E-1,2.990757251E-1,5.374332612E0,-2.103682596E0,5.779132960E0
9.419273333E-1,-7.031700745E-1,7.048668780E0,-3.122132492E0,7.741181501E0
9.519153333E-1,-1.488299986E0,8.005377342E0,-4.076899778E0,9.106163573E0
9.619033333E-1,-1.670593366E0,8.586398204E0,-4.470055448E0,9.823365616E0
9.718913333E-1,-1.716203110E0,8.342576913E0,-4.262850591E0,9.524486223E0
9.818793333E-1,-2.265075981E0,7.542059176E0,-4.408905852E0,9.025058261E0
9.918673333E-1,-3.054369110E0,7.460971159E0,-4.899403045E0,9.433949941E0
1.001855333E0,-3.752256810E0,7.647034823E0,-5.152435455E0,9.955107427E0
1.011842333E0,-4.092475006E0,7.512624292E0,-5.612583261E0,1.023176262E1
1.021830333E0,-4.250551558E0,7.402262190E0,-6.334566459E0,1.062955344E1
1.031818333E0,-4.727164245E0,7.669833702E0,-7.290228953E0,1.158964490E1
1.041806333E0,-5.598654023E0,7.671141724E0,-7.854161328E0,1.232392764E1
1.051794333E0,-6.656305992E0,7.615577973E0,-1.035325194E1,1.447388210E1
1.061782333E0,-6.873173958E0,7.811153303E0,-1.090403978E1,1.507158650E1
1.071770333E0,-6.376841828E0,6.994393170E0,-9.843389940E0,1.365569380E1
1.081757958E0,-5.231995010E0,6.026243947E0,-8.408049940E0,1.159244115E1
1.091745958E0,-3.618585075E0,5.083675708E0,-6.353657618E0,8.905441133E0
1.101733958E0,-2.506883199E0,3.628772678E0,-4.633851162E0,6.397267472E0
1.111721958E0,-8.640804791E-1,2.133502226E0,-2.653619075E0,3.512856533E0
1.121709958E0,1.320632539E0,5.899548233E-1,-3.811624467E-2,1.446917359E0
1.131697958E0,2.478952804E0,-1.341147203E0,1.727556941E0,3.305803353E0
1.141685958E0,2.586414979E0,-3.377859299E0,2.996696268E0,5.203812488E0
1.151672958E0,2.399208769E0,-5.175669951E0,4.096227749E0,7.023022422E0
1.161660958E0,1.983396599E0,-6.394195780E0,4.977606046E0,8.342431521E0
1.171648958E0,1.909527847E0,-6.799213112E0,5.834859901E0,9.160850703E0
1.181636958E0,2.234197420E0,-7.055564986E0,6.812356483E0,1.005886854E1
1.191624958E0,2.858581526E0,-7.231477885E0,8.064823059E0,1.120299655E1
1.201612958E0,3.453711427E0,-7.633368126E0,9.095089009E0,1.236596440E1
1.211600958E0,3.678713747E0,-7.972995461E0,8.910182508E0,1.250971398E1
1.221588958E0,3.494507743E0,-7.829702425E0,8.092188029E0,1.178979777E1
1.231576958E0,3.336342899E0,-7.732377275E0,7.565336357E0,1.132056343E1
1.241564958E0,3.257058163E0,-8.158563867E0,7.528903525E0,1.156957132E1
1.251552958E0,3.085132188E0,-8.423283691E0,7.529653723E0,1.171176477E1
1.261540958E0,2.748244566E0,-8.402766396E0,7.199345096E0,1.140131138E1
1.271528958E0,2.561756102E0,-7.890039843E0,6.665777312E0,1.064180014E1
1.281516958E0,2.273304767E0,-7.050602455E0,6.300492395E0,9.724973725E0
1.291503958E0,2.487144753E0,-6.719820203E0,6.267704133E0,9.519768257E0
1.301491958E0,2.939989970E0,-6.992347814E0,6.715650553E0,1.013096399E1
1.311479958E0,2.947364479E0,-6.876818528E0,6.747216747E0,1.007484612E1
1.321467958E0,2.966163277E0,-6.222377687E0,5.974823533E0,9.122205046E0
1.331455958E0,3.039138867E0,-5.802461064E0,5.659373850E0,8.656409869E0
1.341443958E0,3.202968494E0,-5.635306710E0,5.714553439E0,8.641285199E0
1.351431958E0,3.493475417E0,-5.075826405E0,5.924431643E0,8.547939780E0
1.361419958E0,3.921731631E0,-4.217617115E0,6.317583221E0,8.548691764E0
1.371407958E0,3.956605595E0,-3.796798852E0,6.266546969E0,8.327065526E0
1.381395958E0,3.770389026E0,-3.477125140E0,5.739813411E0,7.697511977E0
1.391383958E0,3.655243608E0,-3.144620883E0,5.307583721E0,7.170766437E0
1.401371958E0,3.453420528E0,-2.907235622E0,4.967297990E0,6.712092194E0
1.411359958E0,3.065962092E0,-2.466563723E0,4.407582042E0,5.908539550E0
1.421346958E0,2.674871658E0,-2.050187005E0,3.974091693E0,5.210720672E0
1.431334958E0,2.362429198E0,-1.953914938E0,3.619153424E0,4.743113619E0
1.441322958E0,1.922651922E0,-1.962937192E0,3.309135804E0,4.301173398E0
1.451310958E0,1.184244772E0,-1.349616310E0,2.414014211E0,3.008548567E0
1.461298958E0,1.316369042E-1,4.614564121E-2,9.360216969E-1,9.463584479E-1
1.471286958E0,-1.168707258E0,1.875963367E0,-8.518399179E-1,2.368701428E0
1.481274958E0,-2.763884406E0,3.917066723E0,-2.520194970E0,5.416073431E0
1.491262958E0,-4.020367435E0,5.657964671E0,-3.219595052E0,7.651255506E0
1.501250958E0,-5.427426499E0,7.017241750E0,-5.146853119E0,1.025615606E1
1.511238958E0,-6.204273537E0,8.968304417E0,-1.034322865E1,1.503016544E1
1.521226958E0,-7.095807863E0,1.104574354E1,-1.064296628E1,1.690064113E1
1.531214958E0,-7.700118771E0,1.175010148E1,-1.209511527E1,1.853775949E1
1.541202958E0,-8.010817591E0,1.210793704E1,-1.197990056E1,1.882268194E1
1.551190958E0,-7.753582202E0,1.197803764E1,-1.181252869E1,1.852369446E1
1.561177958E0,-7.619248855E0,1.136105581E1,-1.188514175E1,1.812134478E1
1.571165958E0,-7.068784372E0,1.021441799E1,-1.188747362E1,1.719343120E1
1.581153958E0,-6.683929993E0,9.679367940E0,-1.254369260E1,1.719620039E1
1.591141958E0,-6.655004402E0,9.969813759E0,-1.289460038E1,1.760559539E1
1.601129958E0,-6.348842436E0,1.051465497E1,-1.238253866E1,1.744113050E1
1.611117958E0,-5.393315597E0,1.069797922E1,-1.111319468E1,1.634128846E1
1.621105958E0,-4.402226285E0,9.786538632E0,-9.414361601E0,1.427536826E1
1.631093958E0,-3.124481611E0,8.613297735E0,-8.047197213E0,1.219461628E1
1.641081958E0,-2.011458557E0,7.613285279E0,-7.049106737E0,1.056872670E1
1.651069958E0,-1.697835836E0,6.138345596E0,-6.209033756E0,8.894606982E0
1.661057958E0,-1.607311290E0,4.132782787E0,-4.912761009E0,6.618048344E0
1.671045958E0,-1.308758014E0,2.418559252E0,-3.186148978E0,4.208779123E0
1.681033958E0,-1.166522739E0,5.115512627E-1,-1.741996055E0,2.158010716E0
1.691021958E0,-1.363304934E0,-1.456090014E0,-1.186025834E-1,1.998215465E0
1.701008958E0,-2.562107519E0,-2.019825338E0,1.318179924E0,3.518762232E0
1.710996958E0,-4.185519117E0,-2.437579660E0,2.080682573E0,5.271584662E0
1.720984958E0,-4.308947993E0,-4.150322095E0,3.107235541E0,6.741447842E0
1.730972958E0,-2.821493806E0,-5.627921092E0,4.103230959E0,7.514707407E0
1.740960958E0,-5.955853996E-1,-5.961246298E0,5.260030655E0,7.972396245E0
1.750948958E0,1.681209571E0,-6.052460523E0,6.021659145E0,8.701673567E0
1.760936958E0,4.083070637E0,-6.709408066E0,7.240120654E0,1.068208638E1
1.770924958E0,4.195809048E0,-6.623328865E0,8.418813495E0,1.150433481E1
1.780912958E0,4.091028405E0,-6.516721845E0,8.246673805E0,1.127882112E1
1.790900958E0,4.279399088E0,-7.331388089E0,8.234938443E0,1.182694885E1
1.800888958E0,3.557512076E0,-8.181200193E0,8.435851697E0,1.227809116E1
1.810876958E0,2.237759982E0,-8.209926978E0,8.066746793E0,1.172530915E1
1.820864958E0,1.767552188E0,-7.773962672E0,7.777190335E0,1.113747843E1
1.830851958E0,2.425304308E0,-7.574121798E0,8.257864206E0,1.146480454E1
1.840839958E0,3.473711244E0,-7.389000705E0,8.490685131E0,1.177946243E1
1.850827958E0,4.343877505E0,-7.026990813E0,7.918615771E0,1.144344124E1
1.860815958E0,4.854665413E0,-6.574992857E0,7.057471763E0,1.079843577E1
1.870803958E0,4.488572996E0,-5.951605409E0,6.425621055E0,9.841620823E0
1.880791958E0,4.130088682E0,-5.502662623E0,5.795029837E0,8.995515510E0
1.890779958E0,4.472715932E0,-6.396761538E0,5.799108270E0,9.723857399E0
1.900767958E0,3.054857352E0,-6.417129729E0,5.982609685E0,9.289958345E0
1.910755958E0,1.619073549E0,-5.868929873E0,6.127745764E0,8.637997751E0
1.920743958E0,1.590645848E0,-5.550875840E0,6.793334321E0,8.915815611E0
1.930731958E0,2.100351730E0,-5.320636461E0,7.809383935E0,9.680244170E0
1.940719958E0,2.832698533E0,-5.054030324E0,8.866572804E0,1.059167205E1
1.950707958E0,3.594463556E0,-5.071046891E0,9.362316704E0,1.123782269E1
1.960694958E0,3.754977812E0,-5.323615032E0,9.122426496E0,1.120979039E1
1.970682958E0,3.623193558E0,-5.573741376E0,7.985860505E0,1.039076958E1
1.980670958E0,3.671856717E0,-5.226177031E0,6.185039706E0,8.891016493E0
1.990658958E0,3.987693779E0,-3.719973455E0,4.249696695E0,6.913741836E0
2.000646958E0,4.381180694E0,-1.615924239E0,2.698535047E0,5.393333554E0
2.010634958E0,4.496717290E0,3.059438646E-1,1.067355423E0,4.631772407E0
2.020622958E0,3.422560386E0,1.776619173E0,1.537238842E-1,3.859264997E0
2.030610958E0,1.948786637E0,2.631268678E0,-8.697037464E-1,3.387879694E0
2.040598958E0,9.309357888E-1,2.795467849E0,-1.176873187E0,3.172745253E0
2.050586958E0,-6.106489965E-1,3.574426902E0,-2.267175424E0,4.276622999E0
2.060574958E0,-1.897416801E0,4.825474359E0,-3.640888694E0,6.335729144E0
2.070562958E0,-2.933106628E0,6.665414200E0,-5.047801285E0,8.860652276E0
2.080550958E0,-3.817103016E0,8.846013409E0,-6.527753786E0,1.163760277E1
2.090537667E0,-5.223283828E0,9.986450257E0,-7.559621288E0,1.357054740E1
2.100525667E0,-7.930002054E0,9.993084508E0,-8.839246427E0,1.552027538E1
2.110513667E0,-1.080679824E1,1.057849604E1,-1.022594519E1,1.825544910E1
2.120501667E0,-1.123495476E1,1.255105775E1,-1.149996928E1,2.039614063E1
2.130489667E0,-9.706844591E0,1.476570705E1,-1.213113762E1,2.143393190E1
2.140477667E0,-7.904482466E0,1.510455086E1,-1.297778521E1,2.142548036E1
2.150465667E0,-6.891310267E0,1.390215984E1,-1.318738684E1,2.036338325E1
2.160453667E0,-6.456627671E0,1.279441770E1,-1.163138078E1,1.845736124E1
2.170441667E0,-6.746696345E0,1.195124102E1,-1.135382398E1,1.781177679E1
2.180429667E0,-6.890609186E0,1.084866431E1,-1.078256621E1,1.677610641E1
2.190417667E0,-6.680827460E0,9.150883725E0,-9.480776031E0,1.477353183E1
2.200405667E0,-6.516794350E0,7.590177083E0,-8.538191419E0,1.315219029E1
2.210393667E0,-5.649351137E0,6.209072347E0,-8.131339231E0,1.168701952E1
2.220381667E0,-4.137639484E0,5.089191386E0,-7.436246207E0,9.915527577E0
2.230368667E0,-3.055303495E0,3.582935185E0,-6.121094556E0,7.722700470E0
2.240356667E0,-1.855055186E0,1.652714335E0,-4.812138614E0,5.415659928E0
2.250344667E0,-1.232626681E0,-3.950729728E-1,-3.111371861E0,3.369879233E0
2.260332667E0,-1.105002136E0,-2.679047447E0,-9.439318103E-1,3.047840581E0
2.270320667E0,-6.907751468E-1,-3.869524181E0,2.185330777E0,4.497339024E0
2.280308667E0,-1.957589328E-1,-4.223943803E0,4.570487224E0,6.226505945E0
2.290296667E0,9.706962705E-2,-4.469364892E0,5.030920959E0,6.730141956E0
2.300284667E0,6.693679056E-1,-4.315206560E0,5.683045717E0,7.167012605E0
2.310272667E0,1.305195597E0,-4.264953834E0,6.793492196E0,8.126801522E0
2.320260667E0,2.584558196E0,-4.150104579E0,8.261183086E0,9.599502855E0
2.330248667E0,4.170664266E0,-3.914647145E0,9.893509934E0,1.142805502E1
2.340236667E0,5.432420606E0,-3.937637812E0,1.077357670E1,1.269197148E1
2.350224667E0,6.188246319E0,-3.936594669E0,1.056885282E1,1.286436240E1
2.360211667E0,7.114054685E0,-3.427386385E0,9.684717557E0,1.249601959E1
2.370199667E0,7.381484109E0,-3.279850609E0,8.649962116E0,1.183493018E1
2.380187667E0,6.912539168E0,-3.805029393E0,7.071075895E0,1.059535562E1
2.390175667E0,6.103743528E0,-4.724090656E0,5.899697337E0,9.714893013E0
2.400163667E0,5.235761787E0,-5.963806209E0,5.422383276E0,9.611577725E0
2.410151667E0,4.672547158E0,-6.915876174E0,4.606062854E0,9.532987738E0
2.420139667E0,4.057494623E0,-7.253907804E0,2.162789176E0,8.588369930E0
2.430127667E0,3.958161539E0,-7.438306766E0,2.944554892E0,8.925573025E0
2.440115667E0,4.259950372E0,-7.550768019E0,3.626203412E0,9.397373358E0
2.450103667E0,4.502498432E0,-7.173924326E0,4.467447006E0,9.575790574E0
2.460091667E0,4.583465997E0,-6.563541670E0,4.546540537E0,9.206479819E0
2.470079667E0,4.375624962E0,-5.850535117E0,4.894248140E0,8.793663617E0
2.480067667E0,4.146459132E0,-5.678636332E0,5.260059891E0,8.781131134E0
2.490054667E0,3.871855466E0,-5.573507488E0,6.217710439E0,9.204084613E0
2.500042667E0,3.721739899E0,-5.791093492E0,7.714601739E0,1.033939997E1
2.510030667E0,3.746229500E0,-6.088286414E0,8.615050730E0,1.119466686E1
2.520018667E0,4.254063688E0,-5.624639634E0,8.027247682E0,1.068505191E1
2.530006667E0,5.044594672E0,-4.943481111E0,6.484653960E0,9.588361585E0
2.539994667E0,5.481804435E0,-4.653593116E0,5.369519768E0,8.974288345E0
2.549982667E0,5.447208799E0,-4.572684608E0,4.514231747E0,8.423764983E0
2.559970667E0,4.547089006E0,-4.403363861E0,3.885718045E0,7.427276516E0
2.569958667E0,3.334153116E0,-4.006037371E0,3.101856102E0,6.065181259E0
2.579946667E0,2.004635148E0,-2.647542064E0,1.833904930E0,3.793579886E0
2.589934667E0,6.913259545E-1,-4.403655052E-1,4.429131371E-1,9.316788076E-1
2.599922667E0,-3.068735719E-1,1.487006582E0,-6.620983547E-1,1.656422107E0
2.609910667E0,-1.153122675E0,2.179013445E0,-1.768516102E0,3.034046917E0
2.619897667E0,-2.174650545E0,2.592490529E0,-2.994380186E0,4.518453810E0
2.629885667E0,-2.788181926E0,3.935871953E0,-4.354016869E0,6.497884993E0
2.639873667E0,-3.031441593E0,6.673456460E0,-6.409967474E0,9.737162948E0
2.649861667E0,-3.558573054E0,9.661794133E0,-8.423609966E0,1.330304149E1
2.659849667E0,-4.659171360E0,1.151079599E1,-1.019473276E1,1.606670091E1
2.669837667E0,-6.118852733E0,1.261442403E1,-1.129638444E1,1.800478697E1
2.679825667E0,-6.928361149E0,1.341442370E1,-1.137359224E1,1.890258056E1
2.689813667E0,-6.933657557E0,1.358043434E1,-1.146190157E1,1.907561248E1
2.699801667E0,-6.848116300E0,1.329324951E1,-1.187476645E1,1.909495373E1
2.709789667E0,-6.586358675E0,1.302777189E1,-1.206560788E1,1.893889792E1
2.719777667E0,-7.038240856E0,1.195022711E1,-1.164196307E1,1.810745886E1
2.729765667E0,-7.824700132E0,1.025479302E1,-1.092535639E1,1.690414518E1
2.739753667E0,-8.235717292E0,8.968835344E0,-1.032156120E1,1.596250834E1
2.749741667E0,-8.557183760E0,7.769580769E0,-9.417061846E0,1.490881729E1
2.759728667E0,-8.803111804E0,6.650310257E0,-8.831985939E0,1.413242299E1
2.769716667E0,-8.718597318E0,5.976533259E0,-8.843714284E0,1.378202348E1
2.779704667E0,-8.239831978E0,5.268118524E0,-9.050741971E0,1.332530803E1
2.789692667E0,-7.251415721E0,4.185595424E0,-8.600332119E0,1.200283098E1
2.799680667E0,-6.080187435E0,3.011081588E0,-7.751918669E0,1.030182191E1
2.809668667E0,-4.900933262E0,1.981762887E0,-6.728817313E0,8.557073881E0
2.819656667E0,-3.852566964E0,9.846296006E-1,-4.761319293E0,6.203380455E0
2.829644667E0,-2.903763838E0,-1.169630241E-1,-2.803245816E0,4.037785517E0
2.839632667E0,-1.810131905E0,-1.216976316E0,-7.511806852E-1,2.306920304E0
2.849620667E0,-4.355775127E-1,-1.984613405E0,2.095980059E0,2.919169496E0
2.859608667E0,1.113067493E0,-2.813424649E0,4.291750454E0,5.251037941E0
2.869596667E0,2.691169894E0,-3.447056419E0,6.097541971E0,7.503639880E0
2.879584667E0,3.982071681E0,-4.206574064E0,7.435853274E0,9.425713455E0
2.889571667E0,4.990729537E0,-4.942261382E0,8.025352600E0,1.066487755E1
2.899559667E0,6.067616506E0,-5.332741951E0,8.283836369E0,1.157048192E1
2.909547667E0,6.979426053E0,-5.211751950E0,8.274636360E0,1.201433949E1
2.919535667E0,7.587606647E0,-4.776593390E0,7.817847195E0,1.189564432E1
2.929523667E0,7.508979138E0,-4.717337707E0,7.017825302E0,1.130875390E1
2.939511667E0,6.730174452E0,-5.037464578E0,6.647698306E0,1.071742461E1
2.949499667E0,5.771246288E0,-5.389888544E0,6.538296901E0,1.025219531E1
2.959487667E0,5.039753762E0,-6.065967007E0,6.537844911E0,1.024394894E1
2.969475667E0,3.973784714E0,-6.999011301E0,6.704625043E0,1.047516688E1
2.979463667E0,2.965304613E0,-7.611711794E0,7.151675085E0,1.085714716E1
2.989451667E0,1.932140784E0,-7.960856057E0,7.646004544E0,1.120579237E1
2.999439667E0,1.256784160E0,-7.839454996E0,8.093752744E0,1.133778614E1
3.009427667E0,1.536966654E0,-7.462937577E0,8.167533495E0,1.116988394E1
3.019414667E0,2.143165043E0,-6.848332062E0,7.843384910E0,1.063068649E1
3.029402667E0,2.715382630E0,-6.083032690E0,7.593032278E0,1.010102612E1
3.039390667E0,3.315204337E0,-5.694270033E0,7.602214161E0,1.006026596E1
3.049378667E0,3.666170008E0,-5.617762139E0,7.355464584E0,9.955044612E0
3.059366667E0,3.731444815E0,-5.315102071E0,7.069930426E0,9.599890971E0
3.069354667E0,3.804517469E0,-4.950511803E0,7.053514953E0,9.419872264E0
3.079342667E0,3.495898796E0,-4.962533678E0,6.881855904E0,9.176491137E0
3.089331083E0,2.804597107E0,-4.953759931E0,6.902436349E0,8.947017936E0
3.099319083E0,2.436141537E0,-4.882179487E0,7.080664744E0,8.939031007E0
3.109307083E0,2.374557200E0,-4.971246614E0,7.363172969E0,9.196093245E0
3.119295083E0,2.032067068E0,-5.079286203E0,6.842381936E0,8.760515707E0
3.129283083E0,1.710196558E0,-4.844048039E0,5.725340967E0,7.692145531E0
3.139271083E0,1.973242325E0,-4.088922822E0,4.519034066E0,6.405828909E0
3.149258083E0,1.981079348E0,-3.320907419E0,3.106097673E0,4.959933892E0
3.159246083E0,1.321141539E0,-2.547979769E0,2.074810215E0,3.541532620E0
3.169234083E0,5.067150307E-1,-1.755676201E0,1.352988984E0,2.273705838E0
3.179222083E0,-9.652194759E-1,-9.698215270E-1,-1.779769653E-1,1.379810940E0
3.189210083E0,-3.214963765E0,3.150579196E-1,-2.006232900E0,3.802660115E0
3.199198083E0,-4.927265028E0,1.792337658E0,-4.039261835E0,6.618613987E0
3.209186083E0,-5.181052898E0,3.240320508E0,-5.513127970E0,8.230283478E0
3.219174083E0,-4.707934214E0,4.718717065E0,-6.844567040E0,9.554006137E0
3.229162083E0,-3.769040950E0,7.093612234E0,-8.564391623E0,1.174196781E1
3.239150083E0,-2.974425685E0,9.713604557E0,-1.087710399E1,1.488330316E1
3.249138083E0,-3.404773740E0,1.202360499E1,-1.334335898E1,1.828126883E1
3.259126083E0,-5.071518762E0,1.334977806E1,-1.627174398E1,2.164963115E1
3.269114083E0,-6.520354720E0,1.453236573E1,-1.857852903E1,2.447174739E1
3.279101083E0,-7.280526084E0,1.467215862E1,-1.832662046E1,2.457932700E1
3.289089083E0,-7.487754915E0,1.437051480E1,-1.698174098E1,2.347248806E1
3.299077083E0,-7.160518999E0,1.410648261E1,-1.425937443E1,2.129778493E1
3.309065083E0,-6.295473729E0,1.348045865E1,-1.158026559E1,1.885360194E1
3.319053083E0,-5.059010983E0,1.233585683E1,-1.024803597E1,1.681633721E1
3.329041083E0,-3.007563026E0,1.087399444E1,-9.801612169E0,1.494525984E1
3.339029083E0,-9.850792515E-1,9.143701006E0,-1.001046009E1,1.359363677E1
3.349017083E0,-3.395185769E-1,7.430957401E0,-1.023806530E1,1.265513263E1
3.359005083E0,-1.121803818E0,5.877967329E0,-8.862945192E0,1.069395816E1
3.368993083E0,-2.000774524E0,3.740266217E0,-6.798895023E0,8.013592429E0
3.378981083E0,-2.561538000E0,1.184748217E0,-4.941359741E0,5.690530850E0
3.388969083E0,-2.962424275E0,-8.454945195E-1,-3.059031680E0,4.341485159E0
3.398957083E0,-3.122627167E0,-2.313201782E0,-1.206785204E0,4.069156354E0
3.408944083E0,-3.150043007E0,-3.388306519E0,7.151390326E-1,4.681326292E0
3.418932083E0,-2.386237452E0,-3.969792235E0,2.201298353E0,5.128264230E0
3.428920083E0,-1.398076864E0,-4.645708730E0,3.025060526E0,5.717361254E0
3.438908083E0,-6.142460574E-1,-5.002405842E0,3.946257192E0,6.401117735E0
3.448896083E0,2.169331625E-1,-5.005595498E0,4.966535513E0,7.054751681E0
3.458884083E0,1.056213407E0,-5.094676074E0,5.718571646E0,7.731324125E0
3.468872083E0,1.943835508E0,-5.010538734E0,6.310265431E0,8.288754110E0
3.478860083E0,2.474655392E0,-4.884963346E0,6.597995219E0,8.574399519E0
3.488848083E0,2.934494172E0,-4.982234117E0,6.927954767E0,9.023883316E0
3.498836083E0,3.601614116E0,-5.147449535E0,7.582055885E0,9.846594965E0
3.508824083E0,3.973497031E0,-5.231599154E0,8.049737828E0,1.039021595E1
3.518812083E0,4.372011675E0,-5.532259474E0,8.515684317E0,1.105609607E1
3.528799083E0,4.897302433E0,-5.979546914E0,9.030476691E0,1.188646548E1
3.538787083E0,4.772395382E0,-6.441930694E0,9.032843059E0,1.207751972E1
3.548775083E0,3.983733167E0,-6.887548168E0,8.456248539E0,1.161105461E1
3.558763083E0,3.174903029E0,-7.255571337E0,7.533625152E0,1.093063734E1
3.568751083E0,2.646067981E0,-7.537512381E0,6.734539983E0,1.044843517E1
3.578739083E0,2.245017838E0,-7.732669051E0,6.295364971E0,1.022085593E1
3.588727083E0,2.032858196E0,-7.832914301E0,5.770525326E0,9.939115727E0
3.598715083E0,2.014222974E0,-7.739730733E0,5.435912563E0,9.670039886E0
3.608703083E0,2.139400021E0,-7.444957389E0,5.734484843E0,9.637880441E0
3.618691083E0,2.459339488E0,-7.206876310E0,6.188187847E0,9.812292581E0
3.628679083E0,3.214206843E0,-6.939505357E0,7.011764663E0,1.037558210E1
3.638667083E0,3.503686702E0,-6.659926003E0,7.895315201E0,1.090717365E1
3.648655083E0,3.237722005E0,-6.380073584E0,8.228853831E0,1.090422937E1
3.658642083E0,2.920872206E0,-6.176730228E0,7.865578601E0,1.041877236E1
3.668630083E0,2.813679587E0,-5.915837991E0,7.444886053E0,9.916665785E0
3.678618083E0,2.757619992E0,-5.649954570E0,7.240239353E0,9.588926976E0
3.688606083E0,2.545596444E0,-5.471141453E0,7.167829773E0,9.369697631E0
3.698594083E0,2.157303756E0,-5.260776175E0,6.752495028E0,8.827565608E0
3.708582083E0,1.891741786E0,-4.696896425E0,5.800486459E0,7.699686109E0
3.718570083E0,1.732055789E0,-3.872920829E0,4.398259242E0,6.110991520E0
3.728558083E0,1.222441855E0,-2.596486516E0,2.838035579E0,4.036155629E0
3.738546083E0,4.352488992E-1,-8.055779171E-1,9.784982103E-1,1.340095568E0
3.748534083E0,-7.504474443E-1,1.030314481E0,-1.310579129E0,1.828205938E0
3.758522083E0,-2.203160837E0,2.955719565E0,-3.733867609E0,5.247090922E0
3.768510083E0,-3.441377603E0,4.481653401E0,-5.613059809E0,7.964592734E0
3.778498083E0,-4.457304133E0,5.622301918E0,-6.779482267E0,9.871130574E0
3.788486083E0,-4.760077052E0,7.407673203E0,-7.682072509E0,1.168529819E1
3.798473083E0,-4.237950808E0,9.646634642E0,-8.474954951E0,1.352193212E1
3.808461083E0,-3.522059531E0,1.170254256E1,-9.364832177E0,1.539657389E1
3.818449083E0,-3.440260492E0,1.352877185E1,-1.077880411E1,1.763648713E1
3.828437083E0,-3.859026383E0,1.473020744E1,-1.275455606E1,1.986327758E1
3.838425083E0,-4.598587481E0,1.481558146E1,-1.406552286E1,2.094009060E1
3.848413083E0,-4.978778413E0,1.442493133E1,-1.425928906E1,2.088526281E1
3.858401083E0,-4.759931164E0,1.408166936E1,-1.360579021E1,2.015112612E1
3.868389083E0,-4.263304335E0,1.324303596E1,-1.238013662E1,1.862314550E1
3.878377083E0,-3.785140674E0,1.204349254E1,-1.136537807E1,1.698660711E1
3.888365083E0,-3.347839109E0,1.110807486E1,-1.072330468E1,1.579831057E1
3.898353083E0,-3.135616171E0,1.003591770E1,-1.041590954E1,1.480009812E1
3.908341083E0,-3.358927477E0,8.600665995E0,-1.031386627E1,1.384303748E1
3.918329083E0,-3.731473759E0,7.209436221E0,-1.006161972E1,1.292811117E1
3.928316083E0,-4.164786937E0,5.590191933E0,-9.511718912E0,1.179273050E1
3.938304083E0,-4.437833782E0,3.602173110E0,-8.499215049E0,1.024239602E1
3.948292083E0,-4.232760234E0,1.956118754E0,-6.833894117E0,8.273135354E0
3.958280083E0,-3.694148935E0,6.092178905E-1,-4.938556586E0,6.197356206E0
3.968268083E0,-2.595061257E0,-8.053451979E-1,-2.930720379E0,3.996504192E0
3.978256083E0,-1.730744551E0,-2.479701247E0,-5.034207094E-1,3.065587608E0
3.988244083E0,-1.097847191E0,-3.922982935E0,1.676360475E0,4.405138818E0
3.998232083E0,-2.311189462E-1,-4.966686956E0,3.519085345E0,6.091416662E0
4.008220083E0,7.054768011E-1,-5.877847461E0,5.208581589E0,7.885182970E0
4.018208083E0,1.454674842E0,-6.634823322E0,6.598663555E0,9.469916585E0
4.028196083E0,1.917878548E0,-6.926571316E0,7.480862802E0,1.037395569E1
4.038184083E0,2.374177423E0,-6.707529355E0,7.709084306E0,1.049083645E1
4.048171083E0,2.804651486E0,-6.377802526E0,7.668522756E0,1.036092063E1
4.058159083E0,3.023885821E0,-6.076976144E0,7.567921996E0,1.016597107E1
4.068147083E0,3.066312633E0,-5.915051540E0,7.417885365E0,9.970713674E0
4.078135083E0,3.128650091E0,-5.891106023E0,7.547312899E0,1.007251277E1
4.088122333E0,3.143561076E0,-6.072853857E0,7.877815070E0,1.043175443E1
4.098110333E0,2.936182848E0,-6.441538346E0,8.116218331E0,1.076975329E1
4.108098333E0,2.809549114E0,-6.749998852E0,7.983132779E0,1.082526950E1
4.118086333E0,2.770386803E0,-7.159241382E0,7.755111249E0,1.091199023E1
4.128074333E0,2.553668525E0,-7.388011941E0,7.507798585E0,1.083840316E1
4.138062333E0,2.357193601E0,-7.352304749E0,7.213671944E0,1.056644735E1
4.148050333E0,2.230071770E0,-7.319873752E0,6.860046959E0,1.027686801E1
4.158038333E0,2.169563175E0,-7.106028212E0,6.597113459E0,9.936022710E0
4.168026333E0,2.144688242E0,-6.798551792E0,6.344413755E0,9.543143089E0
4.178013333E0,2.088343741E0,-6.526972014E0,6.226275440E0,9.258998278E0
4.188001333E0,1.949361565E0,-6.286551463E0,6.196247064E0,9.039591666E0
4.197989333E0,1.757585025E0,-6.164791968E0,6.302530734E0,8.989752988E0
4.207977333E0,1.798016474E0,-6.206203703E0,6.434680731E0,9.118933258E0
4.217965333E0,2.077236517E0,-6.061144808E0,6.665779066E0,9.245809780E0
4.227953333E0,2.310206545E0,-5.764046611E0,7.044211448E0,9.390537926E0
4.237941333E0,2.466607870E0,-5.715766736E0,7.188143000E0,9.509129485E0
4.247929333E0,2.492628272E0,-5.876228952E0,6.817529515E0,9.339270372E0
4.257917333E0,2.397941531E0,-5.759982796E0,6.090298440E0,8.718902482E0
4.267905333E0,2.078120762E0,-5.400521706E0,5.236120221E0,7.803920525E0
4.277893333E0,1.609052883E0,-4.913606517E0,4.194580255E0,6.657858792E0
4.287881333E0,1.292432003E0,-3.873762828E0,2.957026418E0,5.041867131E0
4.297869333E0,8.120260803E-1,-2.447037531E0,1.574758671E0,3.021132884E0
4.307856333E0,1.650201201E-2,-4.616329980E-1,-1.152872121E-1,4.760971356E-1
4.317844333E0,-1.236748530E0,1.899546357E0,-1.678520436E0,2.820506009E0
4.327832333E0,-2.461068802E0,3.982224585E0,-3.880604070E0,6.080629922E0
4.337820333E0,-3.579854288E0,5.649984391E0,-6.255344288E0,9.157893453E0
4.347808333E0,-4.548450823E0,6.886734236E0,-7.404948986E0,1.108822722E1
4.357796333E0,-4.795192214E0,8.178612800E0,-8.057250915E0,1.244198007E1
4.367784333E0,-4.618101686E0,9.922783434E0,-8.432361494E0,1.381641106E1
4.377772333E0,-4.303592235E0,1.151932123E1,-9.350890660E0,1.544845701E1
4.387760333E0,-3.866816921E0,1.300163484E1,-1.089622088E1,1.739891982E1
4.397748333E0,-3.605963860E0,1.396491801E1,-1.223215178E1,1.891156914E1
4.407736333E0,-3.648897625E0,1.482081472E1,-1.338926781E1,2.030378032E1
4.417724333E0,-3.444417570E0,1.559984043E1,-1.397793040E1,2.122737789E1
4.427712333E0,-3.037760971E0,1.559252674E1,-1.375761901E1,2.101492238E1
4.437699333E0,-2.949536719E0,1.475590946E1,-1.270652352E1,1.969498339E1
4.447687333E0,-3.237818192E0,1.372271581E1,-1.169450966E1,1.831824096E1
4.457675333E0,-3.299263950E0,1.252025462E1,-1.083865621E1,1.688544897E1
4.467663333E0,-2.746548874E0,1.126609001E1,-9.655127723E0,1.508939383E1
4.477651333E0,-2.173441925E0,1.000438718E1,-8.742780817E0,1.346283139E1
4.487639333E0,-1.920548533E0,8.442043313E0,-7.976460521E0,1.177202295E1
4.497627333E0,-2.429809149E0,6.420143968E0,-7.116564894E0,9.887755912E0
4.507615333E0,-2.998980190E0,4.310651579E0,-6.037232620E0,8.001485919E0
4.517603333E0,-2.925526298E0,2.257884198E0,-4.591675780E0,5.894084461E0
4.527591333E0,-2.325849017E0,4.215883416E-1,-2.955613731E0,3.784569051E0
4.537579333E0,-1.593448857E0,-1.242501166E0,-1.416894958E0,2.467889732E0
4.547567333E0,-1.042679003E0,-2.894950038E0,3.202958554E-1,3.093623225E0
4.557555333E0,-6.056450956E-1,-4.093155622E0,2.087761213E0,4.634595539E0
4.567542333E0,-6.027865380E-2,-4.843837540E0,3.660778583E0,6.071877424E0
4.577530333E0,5.670825621E-1,-5.407123212E0,5.271957806E0,7.573117137E0
4.587518333E0,1.257451181E0,-6.104833449E0,6.513320519E0,9.015182699E0
4.597506333E0,1.806474472E0,-6.531865548E0,6.928762268E0,9.692077390E0
4.607494333E0,2.170520510E0,-6.668360612E0,6.718830854E0,9.711893769E0
4.617482333E0,2.371795122E0,-6.808155844E0,6.396476778E0,9.638013969E0
4.627470333E0,2.272912858E0,-7.039616121E0,6.256938824E0,9.688736318E0
4.637458333E0,2.142222910E0,-7.244295566E0,6.251747666E0,9.805778201E0
4.647446333E0,2.086315489E0,-7.243924268E0,6.274546545E0,9.808011290E0
4.657434333E0,2.454794447E0,-6.950196991E0,6.483157073E0,9.816444347E0
4.667422333E0,2.867492390E0,-6.694229279E0,6.943257515E0,1.006200990E1
4.677410333E0,2.895165800E0,-6.824528047E0,7.441656636E0,1.050401931E1
4.687398333E0,2.847022165E0,-7.259657371E0,7.732709981E0,1.098193808E1
4.697386333E0,2.959454182E0,-7.595860577E0,7.643333536E0,1.117479371E1
4.707373333E0,2.921957742E0,-7.786766905E0,7.103745459E0,1.093776830E1
4.717361333E0,2.536467186E0,-7.857099554E0,6.335298530E0,1.040690572E1
4.727349333E0,1.985213622E0,-7.805965068E0,5.692525808E0,9.863012412E0
4.737337333E0,1.428365880E0,-7.693106790E0,5.378316320E0,9.494756848E0
4.747325333E0,9.853284891E-1,-7.450397639E0,5.407849436E0,9.258732782E0
4.757313333E0,8.434227048E-1,-7.014375445E0,5.781615740E0,9.129069247E0
4.767301333E0,1.050611629E0,-6.627493252E0,6.309624576E0,9.210798765E0
4.777289333E0,1.654500513E0,-6.414293244E0,6.895851215E0,9.562075807E0
4.787277333E0,2.462367176E0,-6.201603699E0,7.462394956E0,1.001051842E1
4.797265333E0,3.202444876E0,-6.034846956E0,7.761437936E0,1.033996856E1
4.807253333E0,3.445798390E0,-5.936219046E0,7.462247606E0,1.013890341E1
4.817241333E0,3.051088530E0,-5.681938255E0,6.712456804E0,9.308632547E0
4.827229333E0,2.263354707E0,-5.203074097E0,5.647799286E0,8.005772378E0
4.837216333E0,1.509822125E0,-4.546294370E0,4.363667699E0,6.479965365E0
4.847204333E0,1.226806070E0,-3.380152577E0,3.174355729E0,4.796563236E0
4.857192333E0,1.323808747E0,-1.568240195E0,1.914698832E0,2.806762997E0
4.867180333E0,9.847421595E-1,5.486793280E-1,5.129165876E-1,1.238486799E0
4.877168333E0,2.368262672E-1,2.850289589E0,-7.452633029E-1,2.955614118E0
4.887156333E0,-4.190222910E-1,5.065234759E0,-2.254812071E0,5.560248224E0
4.897144333E0,-1.139320322E0,6.668389848E0,-3.700205188E0,7.710836037E0
4.907132333E0,-2.111846186E0,8.232380871E0,-5.325958012E0,1.002984635E1
4.917120333E0,-3.013379251E0,1.006447083E1,-7.004570834E0,1.262687768E1
4.927108333E0,-3.742780227E0,1.176263557E1,-8.972579901E0,1.526024867E1
4.937096333E0,-4.214259937E0,1.260107951E1,-1.126822542E1,1.742182814E1
4.947084333E0,-4.976385148E0,1.269921216E1,-1.292621979E1,1.879152886E1
4.957072333E0,-6.106745489E0,1.273484276E1,-1.334187964E1,1.942869818E1
4.967059333E0,-6.950931401E0,1.241742198E1,-1.348176609E1,1.960269963E1
4.977047333E0,-6.999859732E0,1.187723164E1,-1.335100129E1,1.919155812E1
4.987035333E0,-6.401819964E0,1.120536317E1,-1.291390087E1,1.825684251E1
4.997023333E0,-5.523657635E0,1.063618584E1,-1.291796820E1,1.762138318E1
5.007011333E0,-4.944161142E0,1.009814728E1,-1.279072109E1,1.702996929E1
5.016999333E0,-4.675371363E0,9.750917979E0,-1.204484091E1,1.618696053E1
5.026987333E0,-4.260345351E0,9.184147366E0,-1.103404677E1,1.497495554E1
5.036975333E0,-3.808178118E0,8.245476295E0,-9.542618523E0,1.317390102E1
5.046963333E0,-3.369550698E0,6.834962988E0,-7.993999245E0,1.104421183E1
5.056951333E0,-2.886200556E0,5.174538515E0,-6.363220155E0,8.694628988E0
5.066939333E0,-2.372061024E0,3.656124784E0,-4.739886324E0,6.438978514E0
5.076927333E0,-2.175401327E0,2.272884060E0,-3.463171930E0,4.678881565E0
5.086915542E0,-2.095071402E0,6.081402487E-1,-2.598349439E0,3.392724355E0
5.096902542E0,-1.595640540E0,-1.197486961E0,-1.463942825E0,2.474504465E0
5.106890542E0,-6.870533940E-1,-2.567825804E0,-2.286740792E-1,2.667969932E0
5.116878542E0,2.225210541E-1,-3.595641770E0,9.546462482E-1,3.726862597E0
5.126866542E0,1.083803348E0,-4.313970459E0,2.588906186E0,5.146591693E0
5.136854542E0,2.038486434E0,-4.742400627E0,4.379186794E0,6.769273788E0
5.146842542E0,2.815016553E0,-5.110942444E0,6.390346557E0,8.653472134E0
5.156830542E0,3.429577922E0,-5.336658416E0,7.935301386E0,1.015927831E1
5.166818542E0,3.743113519E0,-5.428288963E0,8.559784602E0,1.080495869E1
5.176806542E0,3.679173338E0,-5.290989908E0,8.410026299E0,1.059525521E1
5.186794542E0,3.456369279E0,-5.244425606E0,8.136302932E0,1.027861440E1
5.196782542E0,3.220964762E0,-5.486298605E0,8.218162197E0,1.039289547E1
5.206770542E0,3.239548091E0,-5.973758170E0,8.415033855E0,1.081634195E1
5.216758542E0,3.320327083E0,-6.300624542E0,8.581180733E0,1.115164133E1
5.226745542E0,3.348100480E0,-6.650998474E0,8.424359579E0,1.124345996E1
5.236733542E0,3.260443408E0,-6.936094092E0,8.196784192E0,1.122172730E1
5.246721542E0,3.251831629E0,-6.975467488E0,8.018760449E0,1.111449840E1
5.256709542E0,3.510032393E0,-6.869510093E0,7.765406442E0,1.094586833E1
5.266697542E0,3.909163626E0,-6.739997190E0,7.867404102E0,1.107272187E1
5.276685542E0,4.118980727E0,-6.633670251E0,7.965550786E0,1.115444228E1
5.286673542E0,3.902335832E0,-6.394693378E0,7.695481929E0,1.073968205E1
5.296661542E0,3.424009618E0,-5.873487192E0,7.215340154E0,9.913769576E0
5.306649542E0,2.941047439E0,-5.343548191E0,6.724452952E0,9.078630668E0
5.316637542E0,2.573686176E0,-4.948305064E0,6.584515632E0,8.629335412E0
5.326625542E0,2.377646576E0,-4.717460498E0,6.764358444E0,8.582784045E0
5.336613542E0,2.269521034E0,-4.553846049E0,7.041812920E0,8.687656114E0
5.346601542E0,2.062073517E0,-4.438262967E0,7.752528534E0,9.167989094E0
5.356588542E0,2.041249243E0,-4.440638106E0,8.488999379E0,9.795359907E0
5.366576542E0,2.909723905E0,-4.302770702E0,8.422678505E0,9.895546579E0
5.376564542E0,4.234228178E0,-3.979300978E0,7.958487350E0,9.853986271E0
5.386552542E0,4.503009479E0,-3.731586610E0,7.237715694E0,9.305179282E0
5.396540542E0,3.347745554E0,-3.757319037E0,5.992051184E0,7.824929650E0
5.406528542E0,1.486399056E0,-3.700662441E0,4.304269928E0,5.867795520E0
5.416516542E0,1.746580857E-1,-3.028751873E0,2.439346104E0,3.892846358E0
5.426504542E0,-1.376566127E-1,-1.921603809E0,1.152945796E0,2.245171386E0
5.436492542E0,-4.327723110E-1,-9.368408918E-1,4.974062634E-1,1.145589682E0
5.446480542E0,-1.138922419E0,1.022923601E-1,-2.631925321E-1,1.173404582E0
5.456468542E0,-2.476650170E0,1.798680718E0,-1.937327557E0,3.622469662E0
5.466456542E0,-4.367925933E0,4.075477150E0,-4.915270050E0,7.736159940E0
5.476444542E0,-6.363568649E0,6.682662317E0,-8.292550474E0,1.240642475E1
5.486432542E0,-7.742705796E0,9.077708745E0,-1.125954815E1,1.640523434E1
5.496419542E0,-7.621725150E0,1.174216797E1,-1.474366890E1,2.033088723E1
5.506407542E0,-6.418901435E0,1.390474431E1,-1.573820778E1,2.195985870E1
5.516395542E0,-4.785235282E0,1.509755759E1,-1.524796435E1,2.198488433E1
5.526383542E0,-3.928100126E0,1.538065639E1,-1.468887464E1,2.162770445E1
5.536371542E0,-3.753421283E0,1.515297867E1,-1.451209811E1,2.131435961E1
5.546359542E0,-4.507000496E0,1.365602481E1,-1.447601494E1,2.040478070E1
5.556347542E0,-5.953488797E0,1.101265064E1,-1.429474073E1,1.900163455E1
5.566335542E0,-6.763024110E0,9.586401304E0,-1.441847366E1,1.858843640E1
5.576323542E0,-6.917047956E0,8.515849793E0,-1.420528886E1,1.794869025E1
5.586311542E0,-6.952367477E0,7.144384192E0,-1.383181784E1,1.704983354E1
5.596299542E0,-6.742044885E0,6.458719804E0,-1.299280320E1,1.599947392E1
5.606287542E0,-5.898556545E0,5.426547663E0,-1.144055105E1,1.396877221E1
5.616275542E0,-5.084500165E0,4.122263061E0,-9.172616072E0,1.126863258E1
5.626262542E0,-4.281309666E0,3.366964182E0,-6.637229451E0,8.585969663E0
5.636250542E0,-3.145469899E0,2.308627505E0,-4.215232036E0,5.743859587E0
5.646238542E0,-2.285687708E0,9.241892713E-1,-1.588177446E0,2.932712347E0
5.656226542E0,-1.537962143E0,-4.021264690E-1,7.972450501E-1,1.778379296E0
5.666214542E0,-4.894271529E-1,-1.565663912E0,2.814029835E0,3.257239067E0
5.676202542E0,1.495221043E0,-2.177503694E0,4.761000035E0,5.444660654E0
5.686190542E0,3.436922317E0,-2.741786901E0,6.580278740E0,7.913905402E0
5.696178542E0,4.048939269E0,-3.590846468E0,7.817127403E0,9.507658408E0
5.706166542E0,3.699057380E0,-4.284113991E0,8.166537130E0,9.936246116E0
5.716154542E0,3.360625508E0,-4.384760944E0,8.364666524E0,1.002434928E1
5.726142542E0,3.140234010E0,-4.410726090E0,8.557966118E0,1.012691258E1
5.736130542E0,2.736030610E0,-4.910166015E0,8.597799105E0,1.027218298E1
5.746118542E0,2.571708647E0,-5.456157378E0,9.012527493E0,1.084476789E1
5.756106542E0,2.609713210E0,-5.745423814E0,9.315707964E0,1.125179598E1
5.766093542E0,2.726301135E0,-6.058032920E0,9.025430544E0,1.120673357E1
5.776081542E0,2.787829924E0,-6.359506003E0,8.280756640E0,1.080676838E1
5.786069542E0,2.687100232E0,-6.469355305E0,7.649273722E0,1.037229262E1
5.796057542E0,2.661363420E0,-6.594341294E0,7.309494359E0,1.019788704E1
5.806045542E0,2.539805069E0,-6.872757052E0,7.059501332E0,1.017457411E1
5.816033542E0,2.596354077E0,-6.913501620E0,6.898831540E0,1.010600988E1
5.826021542E0,2.688129050E0,-6.806317479E0,7.058630682E0,1.016741179E1
5.836009542E0,2.719559296E0,-6.704896354E0,7.197158237E0,1.020542623E1
5.845997542E0,2.659679422E0,-6.455369934E0,7.217633432E0,1.004190858E1
5.855985542E0,2.603431254E0,-6.236289967E0,7.257538340E0,9.916704574E0
5.865973542E0,2.818841509E0,-5.988724703E0,7.565999431E0,1.005261351E1
5.875961542E0,3.029897343E0,-5.643921998E0,8.193680490E0,1.040050640E1
5.885949542E0,3.116090272E0,-5.475664274E0,8.811177453E0,1.083188654E1
5.895936542E0,3.076278042E0,-5.460953264E0,8.998029322E0,1.096585741E1
5.905924542E0,2.985886813E0,-5.363284882E0,8.892868903E0,1.080571433E1
5.915912542E0,2.880804161E0,-5.211905732E0,8.558246784E0,1.042624487E1
5.925900542E0,3.013450879E0,-5.055675731E0,7.644223482E0,9.647533153E0
5.935888542E0,3.161826900E0,-4.657879125E0,6.816514438E0,8.840693207E0
5.945876542E0,3.102812414E0,-3.813644096E0,6.434660851E0,8.097912474E0
5.955864542E0,2.899231954E0,-2.780017167E0,5.763812723E0,7.025352551E0
5.965852542E0,2.653778704E0,-1.719561458E0,5.074071071E0,5.978764944E0
5.975840542E0,2.067667548E0,-1.071835560E-1,4.449622353E0,4.907736392E0
5.985828542E0,9.226602244E-1,2.181437700E0,2.535668457E0,3.469810780E0
5.995816542E0,-1.121292187E0,4.336277002E0,-1.233115801E0,4.645553678E0
6.005804542E0,-3.684427062E0,5.402669973E0,-5.601486415E0,8.610487539E0
6.015792542E0,-4.803880884E0,6.113335301E0,-8.766971918E0,1.171793227E1
6.025779542E0,-3.883382083E0,7.346244110E0,-9.826085690E0,1.286856320E1
6.035767542E0,-1.939947402E0,9.185553036E0,-9.595601898E0,1.342435683E1
6.045755542E0,-9.392926294E-1,1.020664003E1,-9.396340483E0,1.390499859E1
6.055743542E0,-1.574678564E0,1.068268641E1,-1.028850806E1,1.491485165E1
6.065731542E0,-3.635420085E0,1.199351288E1,-1.303130010E1,1.807969614E1
6.075719542E0,-7.517783291E0,1.301085122E1,-1.696768544E1,2.266498763E1
6.085707708E0,-1.155471092E1,1.252166263E1,-2.041141830E1,2.658814353E1
6.095695708E0,-1.381559064E1,1.237604942E1,-2.215464169E1,2.889403558E1
6.105683708E0,-1.465074027E1,1.165558591E1,-2.080003595E1,2.798460950E1
6.115671708E0,-1.429035883E1,1.062662448E1,-1.878097367E1,2.588174019E1
6.125659708E0,-1.260963633E1,9.504981165E0,-1.601765323E1,2.249250565E1
6.135647708E0,-1.011884174E1,8.232329416E0,-1.320452269E1,1.856129374E1
6.145635708E0,-6.995056245E0,6.903391199E0,-1.035421673E1,1.427576359E1
6.155623708E0,-4.124903956E0,5.501083875E0,-7.212068637E0,9.964471409E0
6.165610708E0,-2.036041421E0,3.750587722E0,-4.407089707E0,6.134721885E0
6.175598708E0,-1.818913838E-1,1.491162198E0,-1.599681258E0,2.194454216E0
6.185586708E0,2.047413378E0,-7.608800465E-1,8.844521785E-1,2.356500720E0
6.195574708E0,3.309235792E0,-2.295951911E0,2.519323735E0,4.750729289E0
6.205562708E0,2.763147365E0,-3.738586897E0,4.251493544E0,6.299778782E0
6.215550708E0,1.547621743E0,-5.930322129E0,5.807800741E0,8.443601309E0
6.225538708E0,6.568031162E-1,-7.585561876E0,6.639110500E0,1.010197642E1
6.235526708E0,4.736151123E-1,-7.613206927E0,7.382680449E0,1.061551702E1
6.245514708E0,1.069611279E0,-7.416589622E0,8.504792123E0,1.133496180E1
6.255502708E0,1.910514565E0,-6.932316206E0,9.146351548E0,1.163455287E1
6.265490708E0,2.685123289E0,-6.028826078E0,9.143981087E0,1.127692427E1
6.275478708E0,3.157012595E0,-5.410909284E0,9.047365789E0,1.100452159E1
6.285466708E0,3.235537485E0,-5.027615528E0,8.763394006E0,1.060861420E1
6.295454708E0,2.941208530E0,-4.970651368E0,7.997428637E0,9.864935247E0
6.305441708E0,2.502803596E0,-5.191800081E0,7.449007756E0,9.418414434E0
6.315429708E0,2.476218061E0,-5.445866278E0,7.622868866E0,9.690059089E0
6.325417708E0,2.528033162E0,-5.852336644E0,8.110317321E0,1.031591212E1
6.335405708E0,2.388079617E0,-6.212533899E0,8.570379172E0,1.085126264E1
6.345393708E0,2.346636453E0,-6.304269696E0,8.773198033E0,1.105529388E1
6.355381708E0,2.629575325E0,-6.309491844E0,8.800292861E0,1.114313727E1
6.365369708E0,2.960655785E0,-6.321014952E0,8.538548099E0,1.102848658E1
6.375357708E0,3.265345421E0,-6.285457449E0,7.858750808E0,1.057967014E1
6.385345708E0,3.603248997E0,-6.191080465E0,6.884728641E0,9.935409862E0
6.395333708E0,3.557541605E0,-6.050998719E0,6.132623511E0,9.320931225E0
6.405321708E0,3.153416558E0,-6.041328009E0,5.831193112E0,8.969085417E0
6.415309708E0,2.898595192E0,-6.133763718E0,5.861796854E0,8.965800232E0
6.425297708E0,2.987829550E0,-6.216537488E0,6.172326105E0,9.255812947E0
6.435284708E0,2.762180235E0,-6.259430323E0,6.672393436E0,9.556722335E0
6.445272708E0,2.268191377E0,-6.210225418E0,7.494045349E0,9.993613339E0
6.455260708E0,2.195966277E0,-6.016770288E0,8.170189885E0,1.038151219E1
6.465248708E0,2.124288623E0,-5.762723386E0,8.395711146E0,1.040238187E1
6.475236708E0,1.888350840E0,-4.851668715E0,8.136496475E0,9.659561745E0
6.485224708E0,1.778402866E0,-3.338243828E0,7.554579234E0,8.448565323E0
6.495212708E0,1.274682780E0,-1.665485238E0,6.687388621E0,7.008553619E0
6.505200708E0,-1.977297369E-1,2.818299472E-1,5.143478106E0,5.154987118E0
6.515188708E0,-1.734426250E0,1.861866315E0,2.528731905E0,3.587375871E0
6.525176708E0,-1.975800335E0,2.698854890E0,-1.238653114E0,3.566772521E0
6.535164708E0,-5.193736678E-1,3.408758326E0,-6.403075946E0,7.272466150E0
6.545152708E0,1.476648824E0,5.633304039E0,-1.096002102E1,1.241115091E1
6.555140708E0,-5.336630934E-1,7.863336194E0,-7.830711654E0,1.111021590E1
6.565128708E0,-1.936387471E0,8.497678401E0,-8.480802752E0,1.216076272E1
6.575115708E0,-3.051504559E0,9.207267256E0,-1.159155773E1,1.511455130E1
6.585103708E0,-4.680688821E0,9.993375700E0,-1.227939845E1,1.650939224E1
6.595091708E0,-5.323413888E0,1.113033287E1,-1.392290108E1,1.860296266E1
6.605079708E0,-5.896084342E0,1.232804846E1,-1.528846451E1,2.050565133E1
6.615067708E0,-6.689446256E0,1.241654373E1,-1.654782612E1,2.174281027E1
6.625055708E0,-7.226549267E0,1.231358595E1,-1.747373856E1,2.256499397E1
6.635043708E0,-6.504761950E0,1.234945979E1,-1.791746739E1,2.271247945E1
6.645031708E0,-4.409196458E0,1.150333728E1,-1.744610813E1,2.135730486E1
6.655019708E0,-1.764324671E0,1.053289127E1,-1.531538275E1,1.867125033E1
6.665007708E0,-3.146049066E-1,9.437951024E0,-1.399951715E1,1.688669228E1
6.674995708E0,-8.144671467E-1,8.115196822E0,-1.393860203E1,1.614943970E1
6.684983708E0,-1.843631042E0,6.726065029E0,-1.366574405E1,1.534247329E1
6.694971708E0,-2.160415498E0,5.496104386E0,-1.191024970E1,1.329393119E1
6.704958708E0,-2.104064565E0,4.009422324E0,-9.314267794E0,1.035655057E1
6.714946708E0,-2.334362563E0,2.360670648E0,-6.083097010E0,6.930085404E0
6.724934708E0,-2.769588658E0,7.552655500E-1,-2.797822523E0,4.008598041E0
6.734922708E0,-3.132080360E0,-8.292117780E-1,3.375667763E-1,3.257525270E0
6.744910708E0,-3.057269329E0,-2.086519264E0,3.283484069E0,4.947901173E0
6.754898708E0,-2.147493590E0,-2.832760221E0,5.787728419E0,6.792205787E0
6.764886708E0,-5.621235386E-1,-3.296282455E0,7.629991359E0,8.330559947E0
6.774874708E0,1.598628759E0,-3.511728963E0,7.944697276E0,8.832104451E0
6.784862708E0,4.190109474E0,-3.328966051E0,6.827147015E0,8.674616346E0
6.794850708E0,5.912127932E0,-3.705414473E0,6.903284195E0,9.815227240E0
6.804838708E0,5.280090113E0,-4.891719804E0,8.826725199E0,1.138944037E1
6.814826708E0,3.782474928E0,-6.481446762E0,9.959057221E0,1.246992740E1
6.824814708E0,1.867091972E0,-7.759764463E0,1.001523259E1,1.280643826E1
6.834802708E0,6.384188124E-1,-7.361522884E0,8.507675385E0,1.126854641E1
6.844789708E0,-1.300756976E-2,-6.726038716E0,7.337826458E0,9.954067668E0
6.854777708E0,-7.256473562E-1,-7.068485579E0,6.958650311E0,9.945494790E0
6.864765708E0,-1.152872048E0,-7.225400289E0,6.956930060E0,1.009625669E1
6.874753708E0,-1.310770333E0,-7.408633901E0,7.164323782E0,1.038910537E1
6.884741708E0,-1.101607097E0,-7.596186267E0,7.268156299E0,1.057079373E1
6.894729708E0,-1.149122594E-1,-7.280401538E0,7.308610845E0,1.031664887E1
6.904717708E0,1.251140428E0,-6.639128042E0,7.710629141E0,1.025169134E1
6.914705708E0,1.996038572E0,-6.294620621E0,8.287797858E0,1.059688690E1
6.924693708E0,2.132555855E0,-6.102020354E0,8.307567878E0,1.052606911E1
6.934681708E0,1.727085948E0,-6.093421438E0,7.889026521E0,1.011678556E1
6.944669708E0,9.915412288E-1,-6.042149543E0,7.534443178E0,9.708684726E0
6.954657708E0,2.932663701E-1,-5.985237424E0,7.058134838E0,9.258851957E0
6.964645708E0,-3.177567020E-2,-5.921013361E0,6.645787436E0,8.900893189E0
6.974633708E0,-7.963154890E-2,-5.985543233E0,6.596847995E0,8.907944345E0
6.984620708E0,2.912081502E-1,-5.946687900E0,6.802611514E0,9.040100806E0
6.994608708E0,1.093917277E0,-5.729955005E0,7.188987923E0,9.258001227E0
7.004596708E0,1.817664142E0,-5.434114544E0,7.674793895E0,9.577889389E0
7.014584708E0,2.319934850E0,-5.221421490E0,7.595291643E0,9.504409252E0
7.024572708E0,2.573363702E0,-5.058733240E0,6.885216883E0,8.922958829E0
7.034560708E0,2.370133489E0,-4.829001399E0,6.067920561E0,8.109034912E0
7.044548708E0,1.645120848E0,-4.569913613E0,5.105571191E0,7.046799999E0
7.054536708E0,7.855555889E-1,-4.293000004E0,4.086375775E0,5.978746825E0
7.064524708E0,3.183825003E-1,-3.369453342E0,2.706392536E0,4.333490948E0
7.074512708E0,1.374738872E-2,-1.116670255E0,1.813578254E-1,1.131385041E0
7.084500708E0,-8.952876538E-1,1.611416620E0,-2.779672181E0,3.335383177E0
7.094488667E0,-1.976106291E0,4.134283183E0,-7.011845940E0,8.376352248E0
7.104476667E0,-2.848709671E0,6.385039040E0,-1.156785546E1,1.351662496E1
7.114463667E0,-4.908225324E0,8.043716950E0,-1.181363030E1,1.511138376E1
7.124451667E0,-4.679101594E0,9.531683060E0,-1.156348408E1,1.569908079E1
7.134439667E0,-3.747800939E0,1.073552536E1,-1.072587044E1,1.563143670E1
7.144427667E0,-2.978111477E0,1.208310742E1,-1.157231805E1,1.699379823E1
7.154415667E0,-3.356064388E0,1.364891225E1,-1.347990199E1,1.947469465E1
7.164403667E0,-4.717403488E0,1.423086926E1,-1.632499692E1,2.216477069E1
7.174391667E0,-6.651815915E0,1.365164407E1,-1.964464718E1,2.482994571E1
7.184379667E0,-7.300807736E0,1.339342635E1,-2.062989367E1,2.565693231E1
7.194367667E0,-6.537867715E0,1.248690093E1,-1.824429049E1,2.305472933E1
7.204355667E0,-5.270301874E0,1.115771187E1,-1.496722316E1,1.939815417E1
7.214343667E0,-4.556905604E0,1.034368824E1,-1.277713216E1,1.705908501E1
7.224331667E0,-4.492723642E0,9.587259091E0,-1.217774929E1,1.613684233E1
7.234319667E0,-4.303117442E0,8.527841263E0,-1.227511244E1,1.555375459E1
7.244307667E0,-3.917255588E0,7.304055864E0,-1.185111680E1,1.446178042E1
7.254295667E0,-3.827731208E0,5.796485209E0,-1.081410024E1,1.285284136E1
7.264282667E0,-3.583042189E0,4.054368702E0,-9.015296735E0,1.051435553E1
7.274270667E0,-2.915236368E0,1.928900549E0,-6.294973208E0,7.200413050E0
7.284258667E0,-1.864312936E0,5.182153344E-2,-3.168172883E0,3.676366088E0
7.294246667E0,-8.936220744E-1,-1.653514234E0,-1.231119561E-1,1.883567436E0
7.304234667E0,2.838905060E-1,-2.974838206E0,2.886775045E0,4.154964059E0
7.314222667E0,1.322939704E0,-3.806162583E0,5.725124620E0,7.001006712E0
7.324210667E0,2.211663128E0,-4.338197812E0,7.292131053E0,8.768499834E0
7.334198667E0,2.680877918E0,-4.923402357E0,8.039145597E0,9.800758088E0
7.344186667E0,3.410678259E0,-5.261220564E0,8.623178360E0,1.066172467E1
7.354174667E0,3.993683374E0,-5.454855203E0,9.204299210E0,1.142033608E1
7.364162667E0,3.852258815E0,-5.693387103E0,9.538085761E0,1.175710996E1
7.374150667E0,3.049031187E0,-6.065702128E0,9.533430208E0,1.170365862E1
7.384138667E0,1.985365357E0,-6.841655712E0,9.544360408E0,1.190985911E1
7.394125667E0,1.586299320E0,-7.605869256E0,9.375859441E0,1.217671273E1
7.404113667E0,1.670777261E0,-8.034959575E0,8.989081913E0,1.217192120E1
7.414101667E0,2.142058603E0,-8.218345215E0,8.337737757E0,1.190157486E1
7.424089667E0,2.265170706E0,-8.215577143E0,7.953247075E0,1.165679395E1
7.434077667E0,1.744548073E0,-8.248935508E0,7.578474466E0,1.133673940E1
7.444065667E0,1.366688864E0,-8.195787826E0,6.899356620E0,1.079999529E1
7.454053667E0,1.269656659E0,-7.897199759E0,6.544062840E0,1.033453195E1
7.464041667E0,1.280154458E0,-7.550012559E0,6.472446728E0,1.002666703E1
7.474029667E0,1.244538775E0,-7.258863319E0,6.562352346E0,9.864301382E0
7.484017667E0,7.733647290E-1,-7.249320663E0,7.175188494E0,1.022907977E1
7.494005667E0,-9.446586192E-2,-7.166069761E0,7.606982566E0,1.045120392E1
7.503993667E0,8.327421807E-1,-6.302831866E0,6.761701469E0,9.281150566E0
7.513981667E0,1.546444114E0,-6.104958580E0,7.537052790E0,9.821872195E0
7.523969667E0,1.876340951E0,-6.167067119E0,8.596053126E0,1.074455683E1
7.533956667E0,2.220069085E0,-6.130113886E0,8.734716337E0,1.089964552E1
7.543944667E0,2.413961879E0,-5.878138652E0,8.255934625E0,1.041826197E1
7.553932667E0,2.362129236E0,-5.538848702E0,7.481203694E0,9.603484169E0
7.563920667E0,2.397470976E0,-4.853259158E0,6.204881063E0,8.234229809E0
7.573908667E0,2.587252593E0,-3.969767092E0,5.014412515E0,6.899076722E0
7.583896667E0,2.769930720E0,-3.123915308E0,4.935846986E0,6.464823935E0
7.593884667E0,3.417183579E0,-2.213502077E0,5.658636516E0,6.971147845E0
7.603872667E0,4.418885880E0,-1.547791312E0,6.515386925E0,8.023246048E0
7.613860667E0,4.711809164E0,-8.726454806E-1,7.105422440E0,8.570279096E0
7.623848667E0,4.064931697E0,-3.251057750E-1,6.848349604E0,7.970524184E0
7.633836667E0,3.404893316E0,3.201707250E-1,5.295484663E0,6.303805644E0
7.643824667E0,2.993295527E0,1.671756962E0,2.383623893E0,4.175673875E0
7.653812667E0,1.993186739E0,3.543900928E0,-1.018425338E0,4.191565022E0
7.663800667E0,7.761637911E-2,5.357894919E0,-3.917010589E0,6.637471975E0
7.673787667E0,-2.130883112E0,6.759225758E0,-6.731109422E0,9.774232949E0
7.683775667E0,-4.613535596E0,7.909647312E0,-9.398295792E0,1.312155460E1
7.693763667E0,-6.369160341E0,9.389102215E0,-1.097646339E1,1.578620260E1
7.703751667E0,-6.957649852E0,1.091355320E1,-1.202454405E1,1.766647091E1
7.713739667E0,-6.958924545E0,1.237249431E1,-1.304933876E1,1.928186942E1
7.723727667E0,-6.849667566E0,1.405020199E1,-1.418754373E1,2.110953620E1
7.733715667E0,-7.357768972E0,1.500654568E1,-1.610833770E1,2.321231830E1
7.743703667E0,-8.770994217E0,1.465655357E1,-1.840520820E1,2.510969118E1
7.753691667E0,-9.370365397E0,1.409631313E1,-2.011566847E1,2.628973011E1
7.763679667E0,-8.939209256E0,1.349615141E1,-1.970759129E1,2.550381774E1
7.773667667E0,-7.561253246E0,1.242118525E1,-1.757107950E1,2.280792030E1
7.783655667E0,-5.575272762E0,1.113620230E1,-1.388608935E1,1.865267127E1
7.793643667E0,-4.012411421E0,9.796888788E0,-1.064121913E1,1.501046368E1
7.803631667E0,-3.200287546E0,8.117390698E0,-8.433861889E0,1.213523376E1
7.813619667E0,-2.620710653E0,6.084440115E0,-6.613114949E0,9.360653031E0
7.823606667E0,-2.106353312E0,3.934585565E0,-4.889455177E0,6.620004515E0
7.833594667E0,-1.886998817E0,1.852673907E0,-3.067610130E0,4.050110746E0
7.843582667E0,-2.109536828E0,-1.101954567E-1,-1.021057169E0,2.346240911E0
7.853570667E0,-2.217593374E0,-1.788879615E0,7.494171649E-1,2.946088379E0
7.863558667E0,-1.017533930E0,-3.009507517E0,2.037397390E0,3.774056030E0
7.873546667E0,6.752297392E-1,-3.410076288E0,3.387933467E0,4.854137273E0
7.883534667E0,1.644472246E0,-3.984678662E0,4.989909173E0,6.594023548E0
7.893522667E0,2.096735081E0,-5.112737539E0,6.444036861E0,8.488933632E0
7.903510667E0,2.491875735E0,-5.754037932E0,7.592772662E0,9.847263270E0
7.913498667E0,2.572479603E0,-6.191868085E0,8.204387911E0,1.059570020E1
7.923486667E0,2.477878962E0,-6.538607973E0,8.297843959E0,1.085115168E1
7.933474667E0,2.277929330E0,-6.813910673E0,8.209376755E0,1.090927163E1
7.943462667E0,1.956732565E0,-7.236860831E0,8.018075155E0,1.097681585E1
7.953450667E0,1.728871249E0,-7.651247157E0,7.651351238E0,1.095781706E1
7.963437667E0,1.567723593E0,-7.579389555E0,7.284470031E0,1.062865970E1
7.973425667E0,1.629729369E0,-7.046837432E0,7.121025735E0,1.015002183E1
7.983413667E0,1.754678958E0,-6.867931929E0,7.330230925E0,1.019704235E1
7.993401667E0,2.043292991E0,-6.896709586E0,7.709363219E0,1.054390490E1
8.003389667E0,2.482701454E0,-6.876813850E0,8.055200881E0,1.087844826E1
8.013377667E0,2.663723064E0,-6.822660447E0,8.191991229E0,1.098875955E1
8.023365667E0,2.631580335E0,-6.758887789E0,8.070573796E0,1.085089584E1
8.033353667E0,2.561719556E0,-6.567614256E0,7.715325624E0,1.045094319E1
8.043341667E0,2.404934070E0,-6.143316314E0,7.296180834E0,9.836579588E0
8.053329667E0,2.055060367E0,-5.663207869E0,6.818902441E0,9.099045388E0
8.063317667E0,1.733298030E0,-5.434270080E0,6.375852479E0,8.554946417E0
8.073305667E0,1.694829490E0,-5.372558566E0,6.178022463E0,8.360908689E0
8.083293667E0,1.900224927E0,-5.313258444E0,6.432710220E0,8.556946350E0
8.093281542E0,2.462052304E0,-5.334915946E0,7.069304189E0,9.192284342E0
8.103269542E0,3.351153603E0,-5.339739314E0,7.850048981E0,1.006808400E1
8.113256542E0,4.020623835E0,-4.942625079E0,8.083232433E0,1.029240522E1
8.123244542E0,4.189159594E0,-4.388307281E0,7.397253465E0,9.566904291E0
8.133232542E0,3.723856006E0,-3.974827273E0,6.060741935E0,8.148554976E0
8.143220542E0,2.528512049E0,-3.381404466E0,4.794037973E0,6.388275936E0
8.153208542E0,1.375350491E0,-2.674603563E0,4.066984069E0,5.058206462E0
8.163196542E0,6.785918882E-1,-1.744632565E0,3.676159099E0,4.125333375E0
8.173184542E0,7.192092794E-1,-3.217313468E-1,3.058718269E0,3.158564626E0
8.183172542E0,1.814714953E0,1.452489299E0,1.556298426E0,2.797316627E0
8.193160542E0,2.673635264E0,4.260307052E0,-1.550959334E0,5.263460512E0
8.203148542E0,9.358185062E-1,6.945937294E0,-3.868026125E0,8.005212507E0
8.213136542E0,-2.227082820E0,8.649021884E0,-6.295658501E0,1.092706701E1
8.223124542E0,-5.189819044E0,9.074124987E0,-1.032535020E1,1.469308758E1
8.233112542E0,-7.783546844E0,8.575983728E0,-1.274887140E1,1.722396064E1
8.243100542E0,-7.398978978E0,9.118101895E0,-1.402952272E1,1.829514088E1
8.253087542E0,-5.048141593E0,1.027086818E1,-1.367058320E1,1.782860937E1
8.263075542E0,-3.611816630E0,1.112645383E1,-1.235397033E1,1.701363504E1
8.273063542E0,-4.705737123E0,1.092486990E1,-1.403800119E1,1.840006036E1
8.283051542E0,-7.603692337E0,1.019350250E1,-1.795156250E1,2.199959606E1
8.293039542E0,-9.028930103E0,9.789637071E0,-2.055260751E1,2.449016636E1
8.303027542E0,-9.140331255E0,9.433328215E0,-2.043215487E1,2.429004506E1
8.313015542E0,-8.082566435E0,8.459042923E0,-1.928988959E1,2.256065442E1
8.323003542E0,-6.400107899E0,7.521513230E0,-1.691654686E1,1.958836645E1
8.332991542E0,-4.862491619E0,6.608509682E0,-1.400148649E1,1.622830395E1
8.342979542E0,-3.478194304E0,5.722619088E0,-1.137828756E1,1.320271308E1
8.352967542E0,-2.500077624E0,4.763848214E0,-9.320115595E0,1.076146796E1
8.362955542E0,-1.969964668E0,3.877185788E0,-7.611310090E0,8.766149195E0
8.372943542E0,-1.280093793E0,2.798849879E0,-5.593666933E0,6.384458514E0
8.382931542E0,-8.095443758E-1,1.119473995E0,-3.916160404E0,4.152697489E0
8.392919542E0,-2.944298199E-1,-1.137558264E-1,-3.341821740E0,3.356695078E0
8.402906542E0,3.183154035E-1,-1.027910691E0,-2.014404384E0,2.283801678E0
8.412894542E0,1.241012173E0,-1.548175474E0,4.053757668E-2,1.984591093E0
8.422882542E0,2.600313811E0,-1.495640581E0,2.199106232E0,3.719494708E0
8.432870542E0,3.394782603E0,-2.413145900E0,4.822305168E0,6.372005115E0
8.442858542E0,4.256940225E0,-4.387092229E0,9.131741695E0,1.098894102E1
8.452846542E0,5.118853142E0,-6.332187812E0,1.286323124E1,1.522373075E1
8.462834542E0,4.495943703E0,-7.178334296E0,1.435945537E1,1.667141121E1
8.472822542E0,3.024468788E0,-7.304362258E0,1.424327471E1,1.629024229E1
8.482810542E0,7.907979101E-1,-7.787097273E0,1.299364403E1,1.516901548E1
8.492798542E0,-1.289561605E0,-7.891739044E0,1.138052938E1,1.390895263E1
8.502786542E0,-2.032811126E0,-7.556693587E0,1.053704279E1,1.312498419E1
8.512774542E0,-1.497171382E0,-7.163972365E0,1.083325572E1,1.307376961E1
8.522762542E0,-1.103705809E-1,-7.245449222E0,1.185657927E1,1.389558160E1
8.532750542E0,2.255466667E0,-7.168985767E0,1.304097373E1,1.505152759E1
8.542738542E0,4.874767264E0,-6.723669425E0,1.293359313E1,1.537039094E1
8.552725542E0,7.773403094E0,-5.751413117E0,9.237736512E0,1.337311947E1
8.562713542E0,1.202684084E1,-3.802138529E0,1.548654361E0,1.270824489E1
8.572701542E0,8.383184656E0,-4.224063671E0,2.299937373E0,9.664895798E0
8.582689542E0,3.144806533E0,-7.221125389E0,4.417792450E0,9.030578616E0
8.592677542E0,1.907072601E0,-7.600725460E0,1.905490637E0,8.064666639E0
8.602665542E0,-2.028858116E-1,-7.195487103E0,3.937601559E0,8.204931647E0
8.612653542E0,-9.934682518E-1,-7.540499139E0,6.634109377E0,1.009244835E1
8.622641542E0,-3.415250489E-1,-7.289053078E0,7.704211237E0,1.061139976E1
8.632629542E0,8.647613874E-1,-6.597290629E0,8.601816727E0,1.087489342E1
8.642617542E0,1.873513092E0,-5.587151965E0,8.987901945E0,1.074749737E1
8.652605542E0,2.238912030E0,-4.360251755E0,8.179842469E0,9.535950150E0
8.662593542E0,1.834142911E0,-3.560799381E0,6.987275940E0,8.053905730E0
8.672581542E0,1.406103337E0,-2.995031565E0,6.065237274E0,6.909011786E0
8.682569542E0,1.820647830E0,-2.034750355E0,5.074414303E0,5.762347442E0
8.692557542E0,3.052449469E0,-6.574749613E-1,4.073727078E0,5.132735469E0
8.702544542E0,5.354024647E0,1.104960036E0,3.525463488E0,6.505029547E0
8.712532542E0,5.767044479E0,2.170275950E0,3.881461857E0,7.282488988E0
8.722520542E0,3.259155559E0,2.096261310E0,3.005426745E0,4.903977606E0
8.732508542E0,7.606546363E-1,2.394911942E0,7.071914971E-2,2.513801879E0
8.742496542E0,-1.344359371E0,3.331918311E0,-3.384145056E0,4.935728873E0
8.752484542E0,-3.088570936E0,4.443790340E0,-7.217635771E0,9.021131256E0
8.762472542E0,-4.195983295E0,5.654302559E0,-9.727327972E0,1.200826060E1
8.772460542E0,-4.864950373E0,6.172745935E0,-1.100336760E1,1.352200551E1
8.782448542E0,-5.251898932E0,7.037188357E0,-1.236704939E1,1.516734561E1
8.792436542E0,-5.543970863E0,8.649164556E0,-1.347442900E1,1.694414050E1
8.802424542E0,-5.790633901E0,1.004769399E1,-1.515766931E1,1.908513910E1
8.812412542E0,-6.181994476E0,1.103998871E1,-1.674595317E1,2.098869586E1
8.822400542E0,-6.704843729E0,1.154440345E1,-1.826861842E1,2.262676732E1
8.832388542E0,-6.896824776E0,1.206519156E1,-1.888352682E1,2.344616438E1
8.842376542E0,-6.301087056E0,1.224169327E1,-1.784206637E1,2.253668309E1
8.852363542E0,-4.928228649E0,1.178522453E1,-1.580043151E1,2.031828218E1
8.862351542E0,-3.608929275E0,1.145321261E1,-1.380818456E1,1.829935547E1
8.872339542E0,-2.811250946E0,1.082313536E1,-1.225586926E1,1.659065165E1
8.882327542E0,-2.687900131E0,9.742419051E0,-1.123934134E1,1.511497039E1
8.892315542E0,-2.902590010E0,8.296527166E0,-1.029141998E1,1.353405767E1
8.902303542E0,-2.635926278E0,6.683009056E0,-8.562303582E0,1.117692981E1
8.912291542E0,-1.794232741E0,4.836440812E0,-6.153260089E0,8.029510606E0
8.922279542E0,-9.752068126E-1,2.562307786E0,-3.545379104E0,4.481758863E0
8.932267542E0,-5.186452509E-1,1.527702034E-2,-1.336578773E0,1.433760475E0
8.942255542E0,2.337857151E-1,-2.009341280E0,4.888137800E-1,2.081116780E0
8.952243542E0,1.018017494E0,-2.488729933E0,2.516844515E0,3.683020854E0
8.962231542E0,1.734144122E0,-2.809803468E0,4.668736235E0,5.718334495E0
8.972219542E0,2.081285714E0,-3.861828076E0,7.117236739E0,8.360653391E0
8.982207542E0,3.104859817E0,-4.698845887E0,9.866572981E0,1.136083490E1
8.992195542E0,3.171664841E0,-5.508225079E0,1.197126305E1,1.355400828E1
9.002182542E0,2.371555678E0,-6.680708177E0,1.258251811E1,1.444215705E1
9.012170542E0,2.019736314E0,-7.356819384E0,1.151455692E1,1.381257207E1
9.022158542E0,1.722109967E0,-7.400019198E0,9.973862371E0,1.253809704E1
9.032146542E0,1.522126421E0,-7.598529246E0,8.856634877E0,1.176836849E1
9.042134542E0,1.592442259E0,-7.993459547E0,8.262022161E0,1.160570024E1
9.052122542E0,1.708077527E0,-8.101509075E0,7.465986900E0,1.114867429E1
9.062110542E0,1.647701371E0,-7.958234750E0,6.582962027E0,1.045867148E1
9.072098542E0,1.705018410E0,-7.830487121E0,6.035531664E0,1.003251010E1
9.082086542E0,2.248958423E0,-7.544361809E0,6.285998901E0,1.007417447E1
9.092074542E0,2.840864462E0,-7.584507623E0,6.919600850E0,1.065251814E1
9.102062667E0,3.043400026E0,-7.552101769E0,7.467332345E0,1.104796711E1
9.112050667E0,2.883567848E0,-7.315367303E0,7.748157156E0,1.103918030E1
9.122038667E0,2.346428438E0,-7.144761922E0,7.839594744E0,1.086336021E1
9.132026667E0,1.754706294E0,-6.846469139E0,7.776420842E0,1.050837071E1
9.142014667E0,1.354089138E0,-6.735867886E0,7.663095955E0,1.029215785E1
9.152002667E0,1.073928132E0,-6.932137281E0,7.300061046E0,1.012416615E1
9.161989667E0,1.037270329E0,-6.947463418E0,6.949555551E0,9.881270163E0
9.171977667E0,1.445230711E0,-6.855559806E0,7.062733673E0,9.948346546E0
9.181965667E0,2.248433928E0,-6.672673518E0,7.123814857E0,1.001642477E1
9.191953667E0,3.166186292E0,-6.284987333E0,6.598430251E0,9.647024577E0
9.201941667E0,3.516102680E0,-5.500654689E0,6.138530368E0,8.961123543E0
9.211929667E0,3.100465050E0,-4.747872452E0,6.117464020E0,8.341375329E0
9.221917667E0,2.670792933E0,-3.675751548E0,5.538014304E0,7.163371187E0
9.231905667E0,1.987506900E0,-2.124336131E0,5.150874833E0,5.915614864E0
9.241893667E0,1.115389861E0,-1.043742612E0,4.800423133E0,5.037614062E0
9.251881667E0,6.195978677E-1,5.371018410E-1,3.447850471E0,3.544016475E0
9.261869667E0,3.522158056E-1,2.845964404E0,1.302746199E0,3.149716975E0
9.271857667E0,-1.411088088E-1,4.646075935E0,-8.171209055E-1,4.719493603E0
9.281845667E0,-6.574078645E-1,6.445833126E0,-2.814483579E0,7.064153708E0
9.291833667E0,-1.806573728E0,8.306199630E0,-5.393522589E0,1.006711214E1
9.301821667E0,-3.392428806E0,1.006330606E1,-8.020519876E0,1.330817197E1
9.311809667E0,-4.598621687E0,1.091371809E1,-9.904715538E0,1.543891038E1
9.321796667E0,-5.110940105E0,1.176867457E1,-1.125272211E1,1.706596510E1
9.331784667E0,-4.993435628E0,1.280209509E1,-1.201691226E1,1.825470401E1
9.341772667E0,-5.070208400E0,1.400230978E1,-1.251829230E1,1.945454534E1
9.351760667E0,-5.402591035E0,1.526961893E1,-1.377106293E1,2.126008999E1
9.361748667E0,-6.054690067E0,1.564053004E1,-1.512872325E1,2.258680409E1
9.371736667E0,-7.057795115E0,1.520148834E1,-1.650485142E1,2.352249647E1
9.381724667E0,-7.995499640E0,1.427636527E1,-1.694828789E1,2.355816381E1
9.391712667E0,-8.217421939E0,1.296611885E1,-1.638563605E1,2.245295816E1
9.401700667E0,-7.769076154E0,1.157484171E1,-1.486877592E1,2.038175661E1
9.411688667E0,-7.084071332E0,1.008727263E1,-1.334666266E1,1.816784357E1
9.421676667E0,-5.970913500E0,8.422393160E0,-1.122086999E1,1.524783387E1
9.431664667E0,-4.388613382E0,6.363363411E0,-8.401765353E0,1.141674132E1
9.441652667E0,-2.599885795E0,4.391940156E0,-5.052266804E0,7.181500145E0
9.451640667E0,-1.257717376E0,2.551270582E0,-2.045106359E0,3.503326220E0
9.461628667E0,-6.014261833E-1,6.831009686E-1,2.040333277E-1,9.327218160E-1
9.471616667E0,8.150126919E-2,-7.622319227E-1,1.595204630E0,1.769835521E0
9.481603667E0,9.897833365E-1,-1.944100387E0,2.691525405E0,3.464607679E0
9.491591667E0,1.804044077E0,-3.021193178E0,3.977830988E0,5.310868348E0
9.501579667E0,2.413339150E0,-3.981972570E0,5.313975897E0,7.065313245E0
9.511567667E0,3.008560853E0,-4.774538094E0,6.664558752E0,8.732925957E0
9.521555667E0,3.493269888E0,-5.521632745E0,7.921446993E0,1.026843148E1
9.531543667E0,3.678573414E0,-6.201339405E0,8.654075047E0,1.126417008E1
9.541531667E0,3.442604056E0,-6.813240582E0,8.724017687E0,1.159224976E1
9.551519667E0,3.001400645E0,-7.282188447E0,8.201956054E0,1.137148880E1
9.561507667E0,2.724334132E0,-7.254948024E0,7.526166444E0,1.080275190E1
9.571495667E0,2.773929631E0,-7.204218750E0,7.513897816E0,1.077284149E1
9.581483667E0,2.818447407E0,-7.127231970E0,7.414820255E0,1.066398803E1
9.591471667E0,2.768876759E0,-6.931963618E0,6.778283588E0,1.008285309E1
9.601459667E0,2.636553684E0,-6.651703064E0,6.086341630E0,9.393621422E0
9.611447667E0,2.202586202E0,-6.210704890E0,5.389248274E0,8.512827860E0
9.621435667E0,1.843150840E0,-6.077313529E0,5.088706652E0,8.137928491E0
9.631423667E0,1.926324266E0,-6.138345011E0,5.673099019E0,8.577532112E0
9.641410667E0,2.408766043E0,-5.962941406E0,6.586424748E0,9.205423131E0
9.651398667E0,2.792326725E0,-5.756529431E0,7.382308567E0,9.768991729E0
9.661386667E0,3.187228667E0,-5.851050841E0,8.247091296E0,1.060225152E1
9.671374667E0,3.518562311E0,-5.891618239E0,8.908074587E0,1.124478719E1
9.681362667E0,3.432674022E0,-5.766065655E0,8.819428459E0,1.108210641E1
9.691350667E0,3.163507390E0,-5.741890342E0,8.335502951E0,1.060460717E1
9.701338667E0,2.975616178E0,-5.796745995E0,7.578836408E0,9.994764483E0
9.711326667E0,2.814084507E0,-5.630264656E0,6.841468016E0,9.296485160E0
9.721314667E0,2.724681749E0,-5.216629697E0,6.472391179E0,8.748083425E0
9.731302667E0,2.818480444E0,-4.526239005E0,6.108655774E0,8.108412107E0
9.741290667E0,2.905249031E0,-3.720699679E0,5.825593234E0,7.498107398E0
9.751278667E0,3.088287638E0,-2.775171579E0,5.869516933E0,7.189598519E0
9.761266667E0,3.450089954E0,-1.637107531E0,5.742708952E0,6.896517082E0
9.771254667E0,3.897683787E0,-1.291568077E-1,5.687651569E0,6.896230910E0
9.781242667E0,3.690738839E0,1.279534507E0,5.005951594E0,6.349670313E0
9.791230667E0,2.831406883E0,2.662993916E0,3.303870386E0,5.101368548E0
9.801217667E0,1.500066631E0,4.181034011E0,1.458389139E-1,4.444380079E0
9.811205667E0,-6.773975945E-1,5.473926482E0,-4.243698036E0,6.959289594E0
9.821193667E0,-3.408045550E0,5.999011710E0,-7.503724830E0,1.019356671E1
9.831181667E0,-4.875193526E0,6.496064801E0,-9.719442417E0,1.266625164E1
9.841169667E0,-5.536205760E0,7.032998827E0,-1.097571728E1,1.416259216E1
9.851157667E0,-5.088817749E0,7.466738852E0,-1.146284882E1,1.459606653E1
9.861145667E0,-4.054442376E0,8.429475893E0,-1.174631014E1,1.501567077E1
9.871133667E0,-4.269646225E0,9.269875733E0,-1.348817463E1,1.691423454E1
9.881121667E0,-5.805160139E0,9.504963039E0,-1.589369460E1,1.940756900E1
9.891109667E0,-7.988447313E0,9.246288650E0,-1.685193980E1,2.081578775E1
9.901097667E0,-1.067317416E1,8.614769479E0,-1.905626994E1,2.347918916E1
9.911085667E0,-1.358100737E1,7.779200023E0,-1.967632506E1,2.514194666E1
9.921073667E0,-1.411005993E1,7.592188525E0,-2.229797331E1,2.745787195E1
9.931061667E0,-1.184988889E1,7.445064393E0,-2.057745116E1,2.488534401E1
9.941049667E0,-7.660066513E0,6.772873744E0,-1.504265925E1,1.818873374E1
9.951037667E0,-4.366465884E0,5.308960741E0,-9.981209983E0,1.211922610E1
9.961025667E0,-2.297400851E0,4.021674580E0,-6.065198683E0,7.631418751E0
9.971012667E0,-1.072077342E0,2.713837211E0,-3.232153702E0,4.354432200E0
9.981000667E0,-8.650663197E-1,1.035755900E0,-1.439685066E0,1.973277251E0
9.990988667E0,-9.358690846E-1,-8.717701524E-1,7.768961549E-2,1.281354681E0
1.000097667E1,-7.078607109E-1,-2.267444980E0,1.909666718E0,3.047818974E0
1.001096467E1,2.383632079E-1,-3.035348117E0,4.051999995E0,5.068417817E0
1.002095267E1,1.977863671E0,-3.439884224E0,5.905267979E0,7.114558179E0
1.003094067E1,3.928848862E0,-3.319169626E0,7.740401993E0,9.293361255E0
1.004092867E1,4.550135698E0,-3.722225218E0,9.632679677E0,1.128482225E1
1.005091667E1,4.820107200E0,-4.074759112E0,1.045172958E1,1.220965792E1
1.006090467E1,4.646316256E0,-3.954185432E0,1.041875128E1,1.207369933E1
1.007089267E1,4.031077487E0,-4.019591802E0,9.973951249E0,1.148418075E1
1.008088067E1,3.622654152E0,-4.303227369E0,9.777059126E0,1.127972846E1
1.009086867E1,3.563211650E0,-4.653796599E0,9.486149622E0,1.115084457E1
1.010085658E1,3.330347456E0,-4.940959207E0,8.684226215E0,1.053186009E1
1.011084458E1,2.836039925E0,-5.307108343E0,7.797270259E0,9.849159604E0
1.012083258E1,2.375667879E0,-5.625296862E0,7.151485051E0,9.403802480E0
1.013082058E1,2.276861921E0,-5.713142506E0,6.942510826E0,9.274834450E0
1.014080758E1,2.708888712E0,-5.903086967E0,7.340455366E0,9.801367190E0
1.015079558E1,3.167127694E0,-5.782123278E0,7.776664671E0,1.019510475E1
1.016078358E1,3.492569099E0,-5.503264886E0,7.804300951E0,1.016814027E1
1.017077158E1,3.713117595E0,-5.226774032E0,8.025219868E0,1.027183348E1
1.018075958E1,3.667089190E0,-4.974739741E0,8.253085277E0,1.031062535E1
1.019074758E1,3.664500043E0,-4.609028854E0,8.366161072E0,1.023056004E1
1.020073558E1,3.913938170E0,-4.413128126E0,8.888589326E0,1.066778478E1
1.021072358E1,4.149670715E0,-4.380885994E0,9.557870400E0,1.130330995E1
1.022071158E1,4.186048583E0,-4.268668863E0,9.557378064E0,1.127333190E1
1.023069958E1,4.071967359E0,-4.347680534E0,8.809914454E0,1.063474668E1
1.024068758E1,3.806420738E0,-4.244661950E0,7.869504422E0,9.717772057E0
1.025067558E1,3.403513665E0,-4.148165350E0,7.238170023E0,9.010121327E0
1.026066358E1,3.271726196E0,-3.811161660E0,6.872562924E0,8.512418378E0
1.027065158E1,3.090794924E0,-3.164506679E0,6.344980935E0,7.734720347E0
1.028063958E1,2.802746171E0,-2.350712255E0,5.246238828E0,6.395643520E0
1.029062758E1,2.418426520E0,-1.356687056E0,3.897169232E0,4.783023586E0
1.030061458E1,1.838594981E0,-4.570935121E-1,2.446870301E0,3.094598561E0
1.031060258E1,1.265668420E0,5.050099826E-1,1.021789241E0,1.703233655E0
1.032059058E1,3.578022355E-1,1.786192527E0,-1.265906986E0,2.218338721E0
1.033057858E1,-1.672996864E0,3.286357099E0,-4.383611382E0,5.728447454E0
1.034056658E1,-4.690374149E0,4.514627312E0,-7.624828268E0,1.002594013E1
1.035055458E1,-7.295234170E0,5.838741868E0,-1.076763359E1,1.425669251E1
1.036054258E1,-8.680379916E0,6.313373226E0,-1.329017856E1,1.708322344E1
1.037053058E1,-8.607803106E0,6.457365004E0,-1.436403842E1,1.794763040E1
1.038051858E1,-7.814452887E0,7.479582846E0,-1.482914350E1,1.835519900E1
1.039050658E1,-7.879000300E0,9.025390783E0,-1.641072178E1,2.031866417E1
1.040049458E1,-9.235770094E0,9.389593381E0,-1.792006004E1,2.223943491E1
1.041048258E1,-1.053501264E1,8.459501345E0,-1.886139861E1,2.320133643E1
1.042047058E1,-1.110294334E1,7.526761690E0,-1.874728903E1,2.305186193E1
1.043045858E1,-1.199338775E1,6.275524784E0,-1.757625312E1,2.218441423E1
1.044044658E1,-1.217705932E1,5.833797462E0,-1.919377189E1,2.346731442E1
1.045043458E1,-1.163919149E1,5.430433722E0,-1.770400542E1,2.187217861E1
1.046042258E1,-9.442946885E0,4.741035595E0,-1.566121515E1,1.889233507E1
1.047041058E1,-7.610468091E0,3.941376229E0,-1.268653423E1,1.531018687E1
1.048039758E1,-6.328519269E0,3.182141297E0,-9.488080373E0,1.184060170E1
1.049038558E1,-4.964152772E0,2.488969376E0,-6.170114104E0,8.301089649E0
1.050037358E1,-3.519634398E0,1.741810699E0,-3.227001135E0,5.082840459E0
1.051036158E1,-2.233527036E0,1.296441146E0,-4.540088135E-1,2.622122551E0
1.052034958E1,4.844447404E-2,8.296912497E-1,2.121355221E0,2.278350809E0
1.053033758E1,2.537602715E0,1.944772232E-1,5.451621693E0,6.016429839E0
1.054032558E1,6.551168962E0,-2.293804228E-1,8.803169106E0,1.097571029E1
1.055031358E1,7.598799387E0,-1.496769678E0,1.176124861E1,1.408222427E1
1.056030158E1,6.981612911E0,-3.151703616E0,1.188646088E1,1.414086655E1
1.057028958E1,5.201966050E0,-4.238579383E0,1.064008009E1,1.257924124E1
1.058027758E1,3.584720340E0,-5.494058445E0,9.105653758E0,1.122264802E1
1.059026558E1,2.264476933E0,-6.912163192E0,7.837323686E0,1.069249729E1
1.060025358E1,1.389480872E0,-7.889817649E0,6.545902959E0,1.034546882E1
1.061024158E1,1.195707361E0,-8.543928707E0,6.024210286E0,1.052233545E1
1.062022958E1,1.099704559E0,-8.840668470E0,5.972682867E0,1.072565661E1
1.063021758E1,1.380117433E0,-8.884944171E0,6.047444197E0,1.083598350E1
1.064020558E1,2.102162028E0,-8.654529961E0,6.476923356E0,1.101228905E1
1.065019358E1,2.652290296E0,-8.012855346E0,6.938149388E0,1.092604281E1
1.066018058E1,3.135062148E0,-7.545366361E0,7.416061619E0,1.103445233E1
1.067016858E1,3.844777011E0,-7.020275286E0,8.087786245E0,1.137887787E1
1.068015658E1,4.472237922E0,-6.124582420E0,8.602861624E0,1.146824529E1
1.069014458E1,4.502789916E0,-5.571896580E0,8.531403971E0,1.114028735E1
1.070013258E1,4.337621569E0,-5.312080815E0,8.148406668E0,1.065033777E1
1.071012058E1,4.113168302E0,-5.102594374E0,8.122951984E0,1.043728757E1
1.072010858E1,3.775921661E0,-5.216267170E0,8.275990575E0,1.048613597E1
1.073009658E1,3.385437583E0,-5.418247540E0,8.189459385E0,1.038681082E1
1.074008458E1,3.067858344E0,-5.434786974E0,7.707161157E0,9.917106301E0
1.075007258E1,3.154829537E0,-5.308351461E0,7.106293091E0,9.414400997E0
1.076006058E1,2.822655648E0,-5.642421602E0,6.767796022E0,9.252425057E0
1.077004858E1,2.983153824E0,-5.689149041E0,6.493520678E0,9.134080925E0
1.078003658E1,3.292399904E0,-5.542773938E0,6.639819183E0,9.254698203E0
1.079002458E1,3.552341091E0,-5.372738076E0,6.851320574E0,9.403511858E0
1.080001258E1,3.703118856E0,-4.887415668E0,6.806327419E0,9.161114240E0
1.081000058E1,3.461893436E0,-4.189361615E0,6.614593125E0,8.560858550E0
1.081998858E1,3.006874808E0,-2.680843711E0,6.107385759E0,7.316309174E0
1.082997558E1,2.460597517E0,-6.470745188E-1,4.726340665E0,5.367638368E0
1.083996358E1,1.599793817E0,1.203982633E0,1.993380720E0,2.825328500E0
1.084995158E1,4.932284278E-1,3.276276791E0,-1.448795028E0,3.616112682E0
1.085993958E1,-1.514168068E0,4.929885750E0,-4.755905941E0,7.015348870E0
1.086992758E1,-3.775675493E0,6.318485447E0,-7.762130247E0,1.069717952E1
1.087991558E1,-5.059244871E0,8.066447416E0,-9.556405672E0,1.349030845E1
1.088990358E1,-4.384927298E0,1.026223301E1,-9.682354698E0,1.477460681E1
1.089989158E1,-3.822043913E0,1.143004360E1,-9.600552151E0,1.540858585E1
1.090987958E1,-4.427816040E0,1.180378125E1,-1.119373189E1,1.685925385E1
1.091986758E1,-6.281185473E0,1.336676773E1,-1.447162719E1,2.067732487E1
1.092985558E1,-8.893288733E0,1.466765626E1,-1.737738230E1,2.441729183E1
1.093984358E1,-1.097995535E1,1.449682401E1,-1.956767678E1,2.671350408E1
1.094983158E1,-1.183644029E1,1.432999125E1,-1.938618622E1,2.685654826E1
1.095981958E1,-1.155526874E1,1.409333923E1,-1.888178435E1,2.624248896E1
1.096980758E1,-1.052350298E1,1.324466968E1,-1.726842294E1,2.417361828E1
1.097979558E1,-8.466641965E0,1.209107601E1,-1.435421042E1,2.058935410E1
1.098978358E1,-6.050117544E0,1.100898209E1,-1.145794652E1,1.700253356E1
1.099977158E1,-4.245513597E0,8.877567909E0,-8.604797053E0,1.307203618E1
1.100975958E1,-2.937825331E0,6.418405007E0,-6.211908247E0,9.402900859E0
1.101974658E1,-1.983265914E0,4.306042219E0,-3.885862471E0,6.129867080E0
1.102973458E1,-1.217671988E0,2.238446299E0,-1.471564670E0,2.942595705E0
1.103972258E1,-5.818480973E-1,2.184087074E-1,8.031390435E-1,1.015520504E0
1.104971058E1,2.204460235E-1,-1.767734914E0,2.590549838E0,3.143951596E0
1.105969858E1,8.804819191E-1,-3.881067755E0,4.097505366E0,5.712047404E0
1.106968658E1,1.403681128E0,-5.804310538E0,5.118287131E0,7.864935136E0
1.107967458E1,1.971979034E0,-7.214773559E0,5.916745479E0,9.536746608E0
1.108966258E1,2.649952286E0,-8.025971235E0,6.697316024E0,1.078390019E1
1.109965029E1,3.250768313E0,-8.384243002E0,7.583145806E0,1.176295565E1
1.110963829E1,3.582783743E0,-8.682649221E0,8.230613843E0,1.248870454E1
1.111962629E1,3.403467765E0,-8.651566592E0,8.157283911E0,1.236828517E1
1.112961429E1,2.960540594E0,-8.334389641E0,7.582165813E0,1.164972488E1
1.113960229E1,2.538239770E0,-7.877011662E0,6.979790334E0,1.082623882E1
1.114959029E1,2.275000314E0,-7.516877557E0,6.552461781E0,1.022809024E1
1.115957829E1,2.192896489E0,-7.131109259E0,6.414034798E0,9.838768045E0
1.116956629E1,2.263598828E0,-6.826067619E0,6.514981129E0,9.703816667E0
1.117955429E1,2.439387034E0,-6.554393701E0,6.585488609E0,9.606213932E0
1.118954129E1,2.544533420E0,-6.352024491E0,6.660693158E0,9.549225037E0
1.119952929E1,2.574040809E0,-6.291110537E0,6.728628448E0,9.564423593E0
1.120951729E1,2.556797078E0,-6.507842848E0,6.647200123E0,9.647512597E0
1.121950529E1,2.488541653E0,-6.656327627E0,6.475382615E0,9.614058302E0
1.122949329E1,2.472594541E0,-6.535615368E0,6.439655542E0,9.502481545E0
1.123948129E1,2.460423562E0,-6.704739064E0,6.547073572E0,9.688724497E0
1.124946929E1,2.416823652E0,-6.988873984E0,6.554254537E0,9.881480085E0
1.125945729E1,2.522166066E0,-7.177202275E0,6.434694180E0,9.963876924E0
1.126944529E1,2.621548852E0,-7.442660603E0,6.391516001E0,1.015466356E1
1.127943329E1,2.541523274E0,-7.515027498E0,6.264824379E0,1.010856089E1
1.128942129E1,2.568316093E0,-7.389559114E0,6.080779173E0,9.908466421E0
1.129940929E1,2.584823367E0,-7.391634291E0,5.949624957E0,9.834409309E0
1.130939729E1,2.584324015E0,-7.258253455E0,5.831158614E0,9.662473007E0
1.131938529E1,2.534342893E0,-6.867036136E0,5.631009007E0,9.235114597E0
1.132937329E1,2.460293169E0,-6.117884434E0,5.639447123E0,8.676688094E0
1.133936129E1,2.453777032E0,-5.323998610E0,6.019064151E0,8.402089988E0
1.134934929E1,2.527531764E0,-4.635843308E0,6.306907960E0,8.225360053E0
1.135933729E1,2.967391192E0,-3.287875328E0,6.163514936E0,7.589759616E0
1.136932429E1,3.514623919E0,-1.732181504E0,4.558063061E0,6.010738134E0
1.137931229E1,2.784187986E0,-1.755217195E-2,1.776818563E0,3.302891918E0
1.138930029E1,1.177398267E0,1.990969328E0,-1.299669394E0,2.653180371E0
1.139928829E1,-3.141391759E-1,4.148879587E0,-3.365869583E0,5.351725264E0
1.140927629E1,-1.901024095E0,6.481951377E0,-4.354060138E0,8.036630261E0
1.141926429E1,-2.931425846E0,8.908959271E0,-5.307314749E0,1.077638170E1
1.142925229E1,-2.728581550E0,1.199548105E1,-5.862403795E0,1.362734388E1
1.143924029E1,-2.093759433E0,1.524224110E1,-5.174577692E0,1.623225174E1
1.144922829E1,-1.901893868E0,1.808180689E1,-5.026710963E0,1.886363602E1
1.145921629E1,-1.874765565E0,2.125286538E1,-6.502333601E0,2.230424567E1
1.146920429E1,-3.037012820E0,2.356678870E1,-9.522871891E0,2.559886845E1
1.147919229E1,-5.155334505E0,2.382924683E1,-1.359244686E1,2.791352880E1
1.148918029E1,-6.430038042E0,2.309831213E1,-1.575708727E1,2.869082103E1
1.149916829E1,-6.917427440E0,2.205869355E1,-1.627084234E1,2.826972010E1
1.150915629E1,-7.118699128E0,2.019021111E1,-1.569884315E1,2.654758329E1
1.151914429E1,-6.793347770E0,1.803230787E1,-1.474430391E1,2.426330973E1
1.152913229E1,-6.492819597E0,1.612649096E1,-1.400832891E1,2.232607659E1
1.153912029E1,-6.281167932E0,1.375631859E1,-1.361929844E1,2.035128158E1
1.154910829E1,-6.479023091E0,1.135579332E1,-1.364143717E1,1.889498850E1
1.155909529E1,-6.902850916E0,8.868248616E0,-1.364399007E1,1.767635848E1
1.156908329E1,-6.928931252E0,6.323007098E0,-1.302703046E1,1.605285114E1
1.157907129E1,-6.380861204E0,3.760329183E0,-1.119663562E1,1.342460854E1
1.158905929E1,-5.638505137E0,1.075970711E0,-8.559704495E0,1.030625995E1
1.159904729E1,-4.913736910E0,-1.313937185E0,-5.499743693E0,7.491223000E0
1.160903529E1,-3.942979536E0,-2.716173758E0,-2.578951301E0,5.438352445E0
1.161902329E1,-3.438369503E0,-3.519121597E0,-4.349650168E-1,4.939210081E0
1.162901129E1,-2.657214236E0,-4.565924057E0,1.510470289E0,5.494540061E0
1.163899929E1,-1.113541995E0,-5.648896224E0,4.255425212E0,7.159514513E0
1.164898729E1,7.483687592E-1,-6.785254054E0,7.357185420E0,1.003632929E1
1.165897529E1,3.265893598E0,-7.489767526E0,1.021995531E1,1.308473022E1
1.166896329E1,4.791439178E0,-8.739920359E0,1.154977236E1,1.525586244E1
1.167895129E1,4.528141689E0,-9.819705209E0,9.753068585E0,1.456204053E1
1.168893929E1,3.015493312E0,-1.010532649E1,5.876283916E0,1.207234592E1
1.169892729E1,1.181476700E0,-1.047558388E1,3.467228143E0,1.109754098E1
1.170891529E1,-1.365045650E-1,-1.110431744E1,2.418648714E0,1.136548991E1
1.171890329E1,-5.714445850E-1,-1.127579171E1,2.503834460E0,1.156456721E1
1.172889129E1,1.621215092E-1,-1.106072177E1,4.521243144E0,1.195020874E1
1.173887929E1,1.176880496E0,-1.036620119E1,6.164721217E0,1.211804285E1
1.174886729E1,1.911933538E0,-9.000067077E0,6.643951995E0,1.134895569E1
1.175885429E1,2.884603390E0,-7.639688966E0,6.866543216E0,1.066935799E1
1.176884229E1,3.916926389E0,-6.673192166E0,7.655592808E0,1.088493947E1
1.177883029E1,4.571422194E0,-6.104138800E0,8.312821017E0,1.128101966E1
1.178881829E1,4.601411979E0,-5.970286678E0,8.502770156E0,1.136285244E1
1.179880629E1,4.240714494E0,-6.061366417E0,8.328671649E0,1.113959576E1
1.180879429E1,3.679392901E0,-6.259091769E0,7.881407599E0,1.071591096E1
1.181878229E1,3.177298633E0,-6.649629641E0,7.060484834E0,1.020603973E1
1.182877029E1,2.832622227E0,-7.071647753E0,6.306222666E0,9.889408220E0
1.183875829E1,2.449493069E0,-7.474763571E0,5.781691754E0,9.762175284E0
1.184874629E1,2.090658069E0,-7.793229833E0,5.091125645E0,9.540694038E0
1.185873429E1,2.022752015E0,-7.772958121E0,4.659263746E0,9.285426340E0
1.186872229E1,2.119931131E0,-7.626982382E0,4.829069227E0,9.272803128E0
1.187871029E1,2.362297782E0,-7.254352192E0,5.290849575E0,9.284350584E0
1.188869829E1,2.582283337E0,-6.899851295E0,5.669478423E0,9.296188504E0
1.189868629E1,2.708906254E0,-6.475102533E0,5.724793083E0,9.057504168E0
1.190867429E1,2.852290214E0,-6.357671732E0,5.841352649E0,9.092686626E0
1.191866229E1,2.850346015E0,-6.392746255E0,6.087326885E0,9.276164385E0
1.192865029E1,2.619810767E0,-6.359494309E0,5.945219665E0,9.091326261E0
1.193863829E1,2.464871831E0,-6.387260397E0,5.659525293E0,8.882731284E0
1.194862529E1,2.152219310E0,-6.600505428E0,5.444669938E0,8.822876549E0
1.195861329E1,1.828329463E0,-6.822314292E0,5.164823951E0,8.749980992E0
1.196860129E1,1.729097536E0,-6.822470412E0,5.016537977E0,8.643004923E0
1.197858929E1,1.938034339E0,-6.657071977E0,5.148518990E0,8.635961568E0
1.198857729E1,2.377735747E0,-6.491581741E0,5.352814858E0,8.743391086E0
1.199856529E1,2.775691981E0,-6.223105665E0,5.553705307E0,8.790628688E0
1.200855329E1,2.992364066E0,-5.665089503E0,5.895724154E0,8.706724130E0
1.201854129E1,3.160797790E0,-4.799416827E0,6.518476594E0,8.689970176E0
1.202852929E1,3.369083213E0,-3.628964467E0,6.888115933E0,8.483292162E0
1.203851729E1,3.602245907E0,-1.952720937E0,6.594693296E0,7.763972843E0
1.204850529E1,2.742183927E0,-2.065008527E-1,5.775939263E0,6.397162626E0
1.205849329E1,2.160364920E0,2.041239595E0,4.566015859E0,5.448149823E0
1.206848129E1,1.869083533E0,4.690808889E0,2.998281448E0,5.872550803E0
1.207846929E1,4.049481891E-1,6.885713897E0,5.586587709E-1,6.920197868E0
1.208845729E1,-7.774833615E-1,8.398740004E0,-1.426619462E0,8.554446628E0
1.209844567E1,-1.411636703E0,9.329353026E0,-3.342521067E0,1.001009456E1
1.210843367E1,-2.519660242E0,9.523888137E0,-4.754720126E0,1.093894403E1
1.211842167E1,-2.982439002E0,9.860334002E0,-5.027980978E0,1.146305900E1
1.212840967E1,-3.375798740E0,1.053669430E1,-6.298795533E0,1.273156585E1
1.213839767E1,-5.365522027E0,1.183189934E1,-8.639262881E0,1.560190796E1
1.214838467E1,-7.978370222E0,1.328388344E1,-1.118328642E1,1.910973171E1
1.215837267E1,-1.092026697E1,1.401624954E1,-1.507801737E1,2.330352097E1
1.216836067E1,-1.279787925E1,1.509563971E1,-1.750386810E1,2.642062546E1
1.217834867E1,-1.127610512E1,1.645730654E1,-1.686764309E1,2.612490897E1
1.218833667E1,-8.583162940E0,1.694333646E1,-1.474947986E1,2.404775442E1
1.219832467E1,-6.880825040E0,1.745570575E1,-1.299019534E1,2.282088060E1
1.220831267E1,-5.744521004E0,1.812601535E1,-1.183234022E1,2.239545108E1
1.221830067E1,-5.628704619E0,1.809220675E1,-1.158961879E1,2.221102259E1
1.222828867E1,-5.961781318E0,1.732395044E1,-1.155960504E1,2.166302296E1
1.223827667E1,-6.023237309E0,1.576709302E1,-1.122795681E1,2.027184314E1
1.224826467E1,-6.124701118E0,1.350453982E1,-1.089098411E1,1.839831771E1
1.225825267E1,-6.030494288E0,1.097195402E1,-1.079125634E1,1.652881876E1
1.226824067E1,-6.069065446E0,8.607097347E0,-1.056146311E1,1.491509916E1
1.227822867E1,-6.829943154E0,6.326081564E0,-1.060967925E1,1.411498229E1
1.228821667E1,-7.244172775E0,4.151937681E0,-1.027371928E1,1.323880409E1
1.229820467E1,-6.715086297E0,2.368083163E0,-9.368385530E0,1.176719377E1
1.230819267E1,-5.462930793E0,1.012579876E0,-7.925770424E0,9.679192511E0
1.231818067E1,-3.848982036E0,-1.992532289E-1,-5.810521451E0,6.972555062E0
1.232816867E1,-2.387005922E0,-1.102548645E0,-3.401179165E0,4.299003431E0
1.233815667E1,-1.063950882E0,-1.639920627E0,-7.600982738E-1,2.097398514E0
1.234814467E1,1.715304101E-1,-2.685058969E0,1.742155100E0,3.205318820E0
1.235813167E1,1.364463268E0,-3.882110313E0,3.934913009E0,5.693512175E0
1.236811967E1,2.956541684E0,-4.685652230E0,6.117554067E0,8.253541258E0
1.237810767E1,4.808985795E0,-5.334878524E0,8.320334689E0,1.099159873E1
1.238809567E1,5.820780391E0,-6.076991932E0,1.005604382E1,1.311241139E1
1.239808367E1,6.070193374E0,-6.688518303E0,1.071403450E1,1.401335292E1
1.240807167E1,5.637222258E0,-7.280891535E0,1.026291831E1,1.378829752E1
1.241805967E1,4.547487494E0,-7.574120044E0,8.556785565E0,1.229900468E1
1.242804767E1,3.291282208E0,-7.628882727E0,6.641314316E0,1.063670278E1
1.243803567E1,2.110777900E0,-8.044829675E0,5.523896787E0,9.984392999E0
1.244802367E1,1.512703341E0,-8.530922745E0,5.331383058E0,1.017293269E1
1.245801167E1,1.764931466E0,-8.934990490E0,5.553904113E0,1.066746873E1
1.246799967E1,2.348082762E0,-9.131453428E0,6.021104829E0,1.118707458E1
1.247798767E1,3.334027109E0,-8.804685874E0,6.515961122E0,1.144971526E1
1.248797567E1,3.970683644E0,-8.217385687E0,6.653069558E0,1.129402898E1
1.249796367E1,3.582772340E0,-7.606932279E0,6.496652446E0,1.062582558E1
1.250795167E1,2.589471611E0,-7.275436667E0,6.499933904E0,1.009388343E1
1.251793967E1,2.422024897E0,-6.381248290E0,5.697122889E0,8.890654844E0
1.252792767E1,2.209722729E0,-5.979079721E0,6.145227769E0,8.854156831E0
1.253791567E1,2.294441575E0,-5.846528020E0,6.426335585E0,8.985774373E0
1.254790367E1,2.425329158E0,-5.645930516E0,6.881684580E0,9.225851483E0
1.255789167E1,2.952591890E0,-5.391768424E0,7.463501249E0,9.669168346E0
1.256787867E1,3.887397366E0,-4.932446830E0,7.727251021E0,9.957474496E0
1.257786667E1,4.827761497E0,-4.546991358E0,7.843156283E0,1.027119818E1
1.258785467E1,5.103268558E0,-4.697308069E0,7.608605168E0,1.029557797E1
1.259784267E1,4.667137314E0,-4.913096055E0,6.908304030E0,9.677052656E0
1.260783067E1,3.793415068E0,-5.119658303E0,6.207754970E0,8.895904720E0
1.261781867E1,3.199050275E0,-5.291511480E0,5.767708138E0,8.455795265E0
1.262780667E1,2.959742742E0,-5.203015625E0,5.762854364E0,8.309147917E0
1.263779467E1,3.026607407E0,-5.027548869E0,6.004848985E0,8.396118827E0
1.264778267E1,3.140522862E0,-5.037911305E0,6.289307256E0,8.648631101E0
1.265777067E1,3.560067310E0,-5.395894219E0,6.833495337E0,9.406721650E0
1.266775867E1,4.237945253E0,-5.530400060E0,7.545783852E0,1.027055786E1
1.267774667E1,4.630595432E0,-5.487365137E0,7.691209368E0,1.052180078E1
1.268773467E1,4.552076389E0,-5.512849057E0,7.335647786E0,1.024327255E1
1.269772267E1,4.150446056E0,-5.477804940E0,6.627204984E0,9.547376358E0
1.270771067E1,3.514092407E0,-5.492133542E0,5.904473342E0,8.796316373E0
1.271769867E1,2.877426225E0,-5.681083977E0,5.675518012E0,8.530287307E0
1.272768667E1,2.569782282E0,-5.603662164E0,5.533087440E0,8.283710958E0
1.273767467E1,2.387492411E0,-4.893448825E0,4.478535665E0,7.050052704E0
1.274766267E1,1.352168035E0,-3.922184206E0,3.055716893E0,5.152600612E0
1.275765067E1,2.857013887E-1,-2.770038893E0,1.743146203E0,3.285315729E0
1.276763867E1,-2.147802177E-1,-8.604493582E-1,-4.521072990E-1,9.954419369E-1
1.277762567E1,-1.703134291E0,1.410269478E0,-3.010990371E0,3.735718060E0
1.278761367E1,-4.261993974E0,3.969129161E0,-5.363183725E0,7.917216595E0
1.279760167E1,-7.039358844E0,6.545777244E0,-7.893058176E0,1.243785110E1
1.280758967E1,-9.369753778E0,9.499306442E0,-9.952646334E0,1.664584867E1
1.281757767E1,-1.057986429E1,1.280148231E1,-1.153212897E1,2.021883964E1
1.282756567E1,-1.045427663E1,1.623434753E1,-1.300895321E1,2.328258584E1
1.283755367E1,-8.537846434E0,1.984585923E1,-1.372069033E1,2.559316888E1
1.284754167E1,-6.210707814E0,2.150769639E1,-1.414050405E1,2.647843935E1
1.285752967E1,-5.979427630E0,2.107319681E1,-1.540100002E1,2.677730345E1
1.286751767E1,-6.974288689E0,2.052647747E1,-1.648536265E1,2.723498048E1
1.287750567E1,-7.023016461E0,1.962451873E1,-1.591577953E1,2.622511265E1
1.288749367E1,-6.337947904E0,1.748277251E1,-1.413969128E1,2.336124543E1
1.289748167E1,-5.929224021E0,1.514234960E1,-1.241909311E1,2.046167937E1
1.290746967E1,-6.076894283E0,1.316432075E1,-1.141552613E1,1.845378611E1
1.291745767E1,-6.613648800E0,1.098005826E1,-1.044643902E1,1.653572248E1
1.292744567E1,-7.074366124E0,8.594603017E0,-9.920220015E0,1.491055405E1
1.293743367E1,-7.324229343E0,6.225093718E0,-9.368883128E0,1.342282006E1
1.294742167E1,-7.112870039E0,4.080161939E0,-8.355686955E0,1.170718353E1
1.295740967E1,-6.605323534E0,1.919599383E0,-6.821535442E0,9.687543888E0
1.296739767E1,-5.667516682E0,2.534194958E-1,-5.053365496E0,7.597464684E0
1.297738567E1,-4.315689248E0,-1.184467551E0,-3.160818840E0,5.478951798E0
1.298737367E1,-2.659171299E0,-2.769047790E0,-6.714515609E-1,3.897392059E0
1.299736167E1,-9.551970559E-1,-4.271257718E0,1.814607949E0,4.738021308E0
1.300734967E1,5.003658316E-1,-5.670813342E0,3.970410871E0,6.940652160E0
1.301733667E1,1.568593951E0,-6.537918001E0,5.630250623E0,8.769525691E0
1.302732467E1,2.370034671E0,-6.956486841E0,6.775170531E0,9.995634509E0
1.303731267E1,3.099586506E0,-7.248494452E0,7.644811712E0,1.098140494E1
1.304730067E1,3.694454159E0,-7.586487490E0,8.072645465E0,1.167781610E1
1.305728867E1,3.938581260E0,-7.697865254E0,7.836064780E0,1.166933859E1
1.306727667E1,3.719227935E0,-7.580181853E0,7.156604288E0,1.106836927E1
1.307726467E1,3.331115195E0,-7.321161309E0,6.594435434E0,1.040107254E1
1.308725267E1,3.095913869E0,-7.205530280E0,6.281984203E0,1.004826726E1
1.309724096E1,2.791502560E0,-7.244295566E0,6.236915619E0,9.958484886E0
1.310722896E1,2.583790749E0,-7.276569858E0,6.586022460E0,1.014889823E1
1.311721696E1,2.803193483E0,-7.505834506E0,7.116288906E0,1.071620330E1
1.312720496E1,3.165027374E0,-7.908167966E0,7.524069048E0,1.136521596E1
1.313719296E1,3.396317205E0,-8.373442025E0,7.564286197E0,1.178422367E1
1.314718096E1,3.435269017E0,-8.643248343E0,7.334834438E0,1.184510917E1
1.315716896E1,3.259578313E0,-8.811994894E0,6.913862978E0,1.166523065E1
1.316715696E1,2.846956092E0,-8.697348536E0,6.374480723E0,1.115271424E1
1.317714496E1,2.357459942E0,-8.274148702E0,6.004389394E0,1.049151305E1
1.318713296E1,2.210175596E0,-7.855144830E0,5.958320351E0,1.010394764E1
1.319712096E1,2.404582652E0,-7.529023393E0,6.110524544E0,9.990331386E0
1.320710896E1,2.619438007E0,-7.206778076E0,6.245847825E0,9.889879715E0
1.321709696E1,3.113575969E0,-6.885180046E0,6.645406197E0,1.006287648E1
1.322708496E1,3.813566328E0,-6.461897181E0,7.141863458E0,1.035884245E1
1.323707296E1,4.180838129E0,-6.175075466E0,7.247225606E0,1.039871355E1
1.324705996E1,4.303354254E0,-6.111191127E0,7.068745195E0,1.028750084E1
1.325704796E1,4.302384493E0,-5.864273735E0,6.753395500E0,9.925148338E0
1.326703596E1,3.994252600E0,-5.546794483E0,6.245996929E0,9.259236497E0
1.327702396E1,3.623068135E0,-5.437080837E0,5.773353040E0,8.718949252E0
1.328701196E1,3.435597630E0,-5.380305542E0,5.312265587E0,8.304889191E0
1.329699996E1,3.244677853E0,-4.906283464E0,4.715842574E0,7.539146038E0
1.330698796E1,2.883057386E0,-4.056108833E0,3.872253077E0,6.305424859E0
1.331697596E1,2.143604169E0,-2.805591134E0,2.586375511E0,4.376724657E0
1.332696396E1,1.113506765E0,-1.040475188E0,6.826536566E-1,1.669880818E0
1.333695196E1,-1.582724333E-2,1.133657586E0,-1.539636201E0,1.912043319E0
1.334693996E1,-1.409156168E0,3.641626028E0,-3.836211424E0,5.473908962E0
1.335692796E1,-3.080222574E0,6.532488862E0,-5.716336255E0,9.210737322E0
1.336691596E1,-4.895863726E0,9.099053421E0,-7.355130708E0,1.268306755E1
1.337690396E1,-6.214890912E0,1.074291390E1,-8.075500075E0,1.480705135E1
1.338689196E1,-6.357174718E0,1.204468420E1,-8.226214982E0,1.591096166E1
1.339687996E1,-5.132834419E0,1.440696049E1,-8.524737561E0,1.750935893E1
1.340686796E1,-4.010442663E0,1.783334934E1,-9.744388393E0,2.071388675E1
1.341685596E1,-4.386984933E0,1.976415959E1,-1.157303141E1,2.331957755E1
1.342684396E1,-5.497831069E0,1.963121262E1,-1.293643370E1,2.414460545E1
1.343683196E1,-6.252358700E0,1.891254304E1,-1.313522383E1,2.386022587E1
1.344681996E1,-6.020841705E0,1.840267636E1,-1.248718979E1,2.303994229E1
1.345680796E1,-5.284234620E0,1.796082683E1,-1.147763526E1,2.196020371E1
1.346679596E1,-4.576592302E0,1.683636516E1,-1.039305862E1,2.030822632E1
1.347678396E1,-4.025912057E0,1.505865607E1,-9.129223884E0,1.806415841E1
1.348677096E1,-3.868657624E0,1.289653230E1,-7.767681009E0,1.554425700E1
1.349675896E1,-3.551814550E0,1.040181424E1,-6.207357944E0,1.262316991E1
1.350674696E1,-3.063227642E0,7.666250528E0,-4.519730469E0,9.411839579E0
1.351673496E1,-2.981694067E0,4.613432100E0,-3.000572387E0,6.259208408E0
1.352672296E1,-3.135919642E0,1.647074111E0,-1.659890622E0,3.911787571E0
1.353671096E1,-3.031754419E0,-1.091274628E0,-4.879144782E-1,3.258907134E0
1.354669896E1,-2.646044885E0,-3.319736806E0,6.244896483E-1,4.290943173E0
1.355668696E1,-2.037504833E0,-5.005623565E0,1.689606172E0,5.662372491E0
1.356667496E1,-9.845597264E-1,-6.085206100E0,2.706936327E0,6.732502909E0
1.357666296E1,1.682895908E-1,-6.922256656E0,3.884927502E0,7.939686410E0
1.358665096E1,1.155473255E0,-7.653170307E0,5.170375882E0,9.308003059E0
1.359663896E1,1.904640305E0,-8.127118710E0,6.171979365E0,1.038128328E1
1.360662696E1,2.473972145E0,-8.200666743E0,6.821948841E0,1.095036343E1
1.361661496E1,2.640474827E0,-8.094679527E0,6.934373256E0,1.098095972E1
1.362660296E1,2.460584945E0,-7.894522904E0,6.608323156E0,1.058526830E1
1.363659096E1,2.255748941E0,-7.584771917E0,6.165895922E0,1.003172173E1
1.364657896E1,2.074522239E0,-7.450937337E0,5.856215687E0,9.701307741E0
1.365656696E1,1.927380273E0,-7.328373849E0,5.813215848E0,9.550567338E0
1.366655496E1,2.090091767E0,-7.116847900E0,6.102102799E0,9.604877209E0
1.367654296E1,2.426069123E0,-7.087457455E0,6.495392956E0,9.915038791E0
1.368653096E1,2.643992804E0,-7.171397744E0,6.581601965E0,1.008648244E1
1.369651896E1,2.557907172E0,-7.410906714E0,6.316843548E0,1.006811501E1
1.370650696E1,2.369604170E0,-7.665955828E0,5.944956540E0,9.986211041E0
1.371649496E1,2.218245192E0,-7.866057488E0,5.580792534E0,9.896500263E0
1.372648296E1,2.095096252E0,-8.117687736E0,5.318442585E0,9.928349008E0
1.373646996E1,1.965839311E0,-8.254489194E0,5.230515080E0,9.967918742E0
1.374645796E1,1.919136284E0,-8.345290021E0,5.285270746E0,1.006285429E1
1.375644596E1,2.027298810E0,-8.302608855E0,5.398695620E0,1.010886584E1
1.376643396E1,2.184850720E0,-8.052837437E0,5.392488216E0,9.934822224E0
1.377642196E1,2.342644997E0,-7.849987001E0,5.372001911E0,9.796360857E0
1.378640996E1,2.473362865E0,-7.696629152E0,5.395885448E0,9.719629826E0
1.379639796E1,2.535849136E0,-7.325397617E0,5.347141305E0,9.417213028E0
1.380638596E1,2.702494782E0,-6.686139656E0,5.132566617E0,8.851620282E0
1.381637396E1,2.921394655E0,-6.007244589E0,4.923598824E0,8.298395005E0
1.382636196E1,3.034348243E0,-5.067377179E0,4.680956916E0,7.536374352E0
1.383634996E1,2.796742250E0,-3.681868905E0,4.102894160E0,6.181558568E0
1.384633796E1,2.269188912E0,-2.020346324E0,2.802965734E0,4.133719209E0
1.385632596E1,1.317960800E0,-1.548617524E-1,1.098333972E0,1.722596977E0
1.386631396E1,-4.463398978E-2,2.033280950E0,-9.402264297E-1,2.240591296E0
1.387630196E1,-1.517934260E0,4.490478019E0,-3.131960492E0,5.681346124E0
1.388628996E1,-2.700528071E0,6.877255315E0,-5.036724905E0,8.941928779E0
1.389627796E1,-3.260579941E0,9.123547407E0,-6.577054585E0,1.171017275E1
1.390626596E1,-3.824071435E0,1.081208295E1,-7.596359344E0,1.375606541E1
1.391625396E1,-4.077248856E0,1.235198345E1,-8.536471168E0,1.555849586E1
1.392624196E1,-4.024349389E0,1.430046048E1,-9.479069813E0,1.762246641E1
1.393622996E1,-4.274426031E0,1.632574653E1,-1.072403675E1,1.999514146E1
1.394621796E1,-4.796638522E0,1.729346072E1,-1.234848915E1,2.178432255E1
1.395620596E1,-5.481413841E0,1.677090441E1,-1.359875601E1,2.227633941E1
1.396619396E1,-6.158323193E0,1.594724457E1,-1.403353274E1,2.211740480E1
1.397618196E1,-6.452837505E0,1.529972858E1,-1.362774299E1,2.148106575E1
1.398616996E1,-6.221854361E0,1.431894937E1,-1.243909059E1,1.996183252E1
1.399615796E1,-5.869359058E0,1.298861776E1,-1.122946539E1,1.814537021E1
1.400614496E1,-5.257000043E0,1.145157305E1,-9.891231859E0,1.601908370E1
1.401613296E1,-4.088501238E0,9.679097798E0,-7.885379612E0,1.313697028E1
1.402612096E1,-2.823838540E0,7.686103579E0,-5.694461237E0,9.973822793E0
1.403610896E1,-1.850760552E0,5.437854424E0,-3.573232901E0,6.764877583E0
1.404609696E1,-1.186883328E0,3.044120110E0,-1.674737288E0,3.671526149E0
1.405608496E1,-7.490976146E-1,8.757339799E-1,3.671057403E-2,1.152998225E0
1.406607296E1,-4.167250662E-1,-1.288856723E0,1.556456301E0,2.063338957E0
1.407606096E1,-1.647597729E-1,-3.180875375E0,2.950424911E0,4.341672614E0
1.408604896E1,-2.731219813E-2,-4.425688530E0,4.020091739E0,5.979013506E0
1.409603696E1,2.270941615E-1,-5.063961235E0,4.672725205E0,6.894174062E0
1.410602542E1,4.218903503E-1,-5.638168337E0,5.038308915E0,7.573076680E0
1.411601342E1,8.916715895E-1,-6.028201010E0,5.495117961E0,8.205522960E0
1.412600142E1,1.264766194E0,-6.413289862E0,5.962314584E0,8.847548564E0
1.413598942E1,1.518773043E0,-6.777122916E0,6.195818464E0,9.307214030E0
1.414597742E1,1.849125963E0,-7.210206299E0,6.494883664E0,9.878757791E0
1.415596542E1,2.268623925E0,-7.484067076E0,6.787217549E0,1.035491364E1
1.416595342E1,2.451118888E0,-7.555425326E0,6.790692549E0,1.045016464E1
1.417594142E1,2.276072985E0,-7.452343592E0,6.491086482E0,1.014160426E1
1.418592942E1,2.105355338E0,-7.163005235E0,6.332187227E0,9.789676204E0
1.419591742E1,1.956696605E0,-7.230863342E0,6.345965606E0,9.817602851E0
1.420590542E1,2.029931080E0,-7.416207799E0,6.411281928E0,1.001125838E1
1.421589342E1,2.259851201E0,-7.369036556E0,6.662647882E0,1.018825324E1
1.422588142E1,2.525775845E0,-7.370084962E0,6.751029716E0,1.030893293E1
1.423586942E1,2.704667022E0,-7.432427976E0,6.770747112E0,1.041149489E1
1.424585742E1,2.716644459E0,-7.427581218E0,6.631632496E0,1.032122422E1
1.425584542E1,2.680524454E0,-7.344340256E0,6.479424795E0,1.015418588E1
1.426583342E1,2.737729226E0,-7.253872721E0,6.343514453E0,1.001768468E1
1.427582142E1,2.869186621E0,-7.170804251E0,5.983336494E0,9.770004149E0
1.428580842E1,3.058434094E0,-7.021576291E0,5.793555754E0,9.603220345E0
1.429579642E1,3.341917634E0,-6.804708325E0,5.981750144E0,9.656800902E0
1.430578442E1,3.539779810E0,-6.572777932E0,6.407088890E0,9.837796445E0
1.431577242E1,3.707773824E0,-6.385798008E0,6.826904356E0,1.005647185E1
1.432576042E1,3.810230491E0,-5.857033128E0,6.737306301E0,9.706389115E0
1.433574842E1,3.716216327E0,-4.930512571E0,5.987376335E0,8.600517042E0
1.434573642E1,3.288570562E0,-3.814957965E0,4.731120763E0,6.910289740E0
1.435572442E1,3.171530355E0,-2.150373783E0,3.369724068E0,5.102720107E0
1.436571242E1,3.101803477E0,-6.209509134E-2,1.776912704E0,3.575256546E0
1.437570042E1,2.373924824E0,1.936547538E0,1.682583082E-1,3.068231786E0
1.438568842E1,1.420174661E0,3.705451310E0,-1.081962352E0,4.113138463E0
1.439567642E1,1.928075507E-1,5.212931918E0,-2.880419122E0,5.958913345E0
1.440566442E1,-1.845694963E0,7.017377990E0,-5.313218683E0,8.993357356E0
1.441565242E1,-3.820412248E0,8.737411904E0,-7.266343662E0,1.198906446E1
1.442564042E1,-5.140149286E0,9.751897972E0,-8.369285824E0,1.384072231E1
1.443562842E1,-5.776750857E0,1.081958961E1,-9.238568571E0,1.535530915E1
1.444561642E1,-6.209586318E0,1.231231009E1,-1.080883775E1,1.752092793E1
1.445560442E1,-6.901613646E0,1.423438109E1,-1.256920985E1,2.020482398E1
1.446559242E1,-7.807019321E0,1.526988673E1,-1.408957480E1,2.219538487E1
1.447558042E1,-8.874209268E0,1.487784028E1,-1.511529337E1,2.299073324E1
1.448556842E1,-9.937107943E0,1.380642221E1,-1.543942792E1,2.297257807E1
1.449555642E1,-1.056549535E1,1.273967256E1,-1.516915792E1,2.245066370E1
1.450554442E1,-1.022135864E1,1.130910798E1,-1.423400102E1,2.085614732E1
1.451553242E1,-8.914289593E0,9.924378555E0,-1.300502856E1,1.863031445E1
1.452552042E1,-7.011889209E0,8.764295062E0,-1.137426116E1,1.597977707E1
1.453550842E1,-5.045882814E0,7.157430500E0,-9.157173575E0,1.267057902E1
1.454549642E1,-3.497488361E0,5.577353786E0,-6.669504327E0,9.371317307E0
1.455548442E1,-2.023692101E0,4.090768788E0,-4.003789701E0,6.071247893E0
1.456547242E1,-9.491928425E-1,2.350866036E0,-1.544664806E0,2.968758585E0
1.457546042E1,-3.435037467E-1,5.400073224E-1,6.810012335E-1,9.345402144E-1
1.458544842E1,1.978130597E-1,-9.294482571E-1,2.333676977E0,2.519732585E0
1.459543542E1,4.594744983E-1,-2.203395749E0,3.507058792E0,4.167197021E0
1.460542342E1,4.729084763E-1,-3.389336214E0,4.335275958E0,5.523211026E0
1.461541142E1,6.185877612E-1,-4.392142469E0,5.138336064E0,6.787935165E0
1.462539942E1,9.230095956E-1,-5.079241764E0,5.938090155E0,7.868389816E0
1.463538742E1,1.851820214E0,-5.347059444E0,6.809684306E0,8.853930378E0
1.464537542E1,3.435000045E0,-5.519996109E0,7.621139844E0,1.001755234E1
1.465536342E1,4.027962091E0,-5.688325753E0,8.434378198E0,1.094167556E1
1.466535142E1,3.405458157E0,-6.107371141E0,8.646960155E0,1.112056867E1
1.467533942E1,2.867266687E0,-6.735151602E0,8.657490991E0,1.133735576E1
1.468532742E1,2.564636148E0,-7.251389408E0,8.584277419E0,1.152604988E1
1.469531542E1,2.231607980E0,-7.724757768E0,8.220316311E0,1.149893721E1
1.470530342E1,2.033685285E0,-8.262285286E0,7.803260731E0,1.154522031E1
1.471529142E1,2.188984409E0,-8.693847808E0,7.497709215E0,1.168718469E1
1.472527942E1,2.462239415E0,-8.933153880E0,7.276085708E0,1.178156545E1
1.473526742E1,2.639178207E0,-8.832323908E0,7.212011919E0,1.170420109E1
1.474525542E1,2.513115161E0,-8.531670604E0,6.995649737E0,1.131566465E1
1.475524342E1,2.229168814E0,-7.904594148E0,6.695222721E0,1.059612238E1
1.476523142E1,2.182533176E0,-6.880700494E0,6.569028112E0,9.760103519E0
1.477521942E1,2.377831641E0,-6.365449113E0,6.991964237E0,9.749902031E0
1.478520742E1,2.609043119E0,-6.228066443E0,7.464830906E0,1.006576465E1
1.479519542E1,3.405679474E0,-5.368843830E0,7.202980310E0,9.607604389E0
1.480518342E1,3.884556203E0,-4.852732909E0,7.406895524E0,9.669586076E0
1.481517142E1,4.064720320E0,-4.513678016E0,7.409268324E0,9.580840130E0
1.482515942E1,4.290845305E0,-3.744170988E0,6.958157975E0,8.991447727E0
1.483514742E1,4.905985841E0,-3.285010777E0,6.700279977E0,8.930495207E0
1.484513542E1,5.305206828E0,-3.089678691E0,6.606998761E0,9.019077920E0
1.485512342E1,5.095579469E0,-3.007293761E0,6.371943031E0,8.695424307E0
1.486511142E1,4.454384618E0,-2.707966606E0,5.656511053E0,7.692252125E0
1.487509942E1,3.655524567E0,-2.405529317E0,4.812670711E0,6.504708335E0
1.488508742E1,3.409821934E0,-2.196491942E0,4.190890662E0,5.832240308E0
1.489507542E1,3.223912344E0,-1.867902396E0,3.241482934E0,4.938611320E0
1.490506242E1,2.421682250E0,-1.369824872E0,2.028644108E0,3.443306843E0
1.491505042E1,1.265315540E0,-7.752402234E-1,6.392275554E-1,1.615745242E0
1.492503842E1,8.812981904E-2,7.889297247E-2,-1.017012066E0,1.023867427E0
1.493502642E1,-1.512591074E0,1.186928059E0,-3.358948234E0,3.870305313E0
1.494501442E1,-3.132300800E0,3.058122438E0,-5.983244693E0,7.413679127E0
1.495500242E1,-4.558202224E0,5.540095328E0,-8.180313755E0,1.088059727E1
1.496499042E1,-5.600086591E0,7.997604638E0,-9.995511103E0,1.397257643E1
1.497497842E1,-6.066901976E0,1.064156996E1,-1.186349653E1,1.705264967E1
1.498496642E1,-6.166855450E0,1.324279038E1,-1.342208940E1,1.983819768E1
1.499495442E1,-6.821449488E0,1.497071745E1,-1.476653970E1,2.210667883E1
1.500494242E1,-7.597420614E0,1.545222981E1,-1.564097209E1,2.326224869E1
1.501493042E1,-7.705541478E0,1.500912781E1,-1.558677541E1,2.296947659E1
1.502491842E1,-7.159572335E0,1.429718370E1,-1.522706874E1,2.208013950E1
1.503490642E1,-6.857794611E0,1.344289613E1,-1.503025380E1,2.129904535E1
1.504489442E1,-7.171093689E0,1.225789239E1,-1.487987511E1,2.056918068E1
1.505488242E1,-7.596932956E0,1.100165436E1,-1.435919810E1,1.961979508E1
1.506487042E1,-7.577772800E0,9.840908382E0,-1.333551319E1,1.822366677E1
1.507485842E1,-7.409566532E0,8.406182925E0,-1.206041087E1,1.646265768E1
1.508484642E1,-6.718075978E0,6.969398078E0,-1.041372852E1,1.421797441E1
1.509483442E1,-5.390890172E0,5.544680130E0,-8.232284392E0,1.129494050E1
1.510482129E1,-3.738276702E0,3.912478997E0,-5.622802439E0,7.803724231E0
1.511480929E1,-2.002273166E0,2.119233266E0,-2.875680538E0,4.095092920E0
1.512479729E1,-5.122330481E-1,4.767100435E-1,-2.414408898E-1,7.402221724E-1
1.513478529E1,9.214887348E-1,-6.256380415E-1,2.114748452E0,2.390130846E0
1.514477329E1,2.095289210E0,-1.898573381E0,4.082427735E0,4.965987714E0
1.515476129E1,2.762062999E0,-3.072128858E0,5.687701855E0,7.029716931E0
1.516474929E1,2.961514156E0,-3.946956519E0,6.678863381E0,8.303989879E0
1.517473729E1,2.933054880E0,-4.669543735E0,6.900976884E0,8.833511848E0
1.518472529E1,2.600286329E0,-5.180213238E0,6.775168192E0,8.916221297E0
1.519471329E1,2.468300346E0,-5.436565112E0,6.727179508E0,8.994647906E0
1.520470129E1,2.750884292E0,-5.539836881E0,6.974764652E0,9.322258257E0
1.521468929E1,2.922944167E0,-5.736533707E0,7.272121296E0,9.712629393E0
1.522467729E1,3.026527300E0,-5.940467632E0,7.553432010E0,1.007488751E1
1.523466529E1,3.090140329E0,-6.030944524E0,7.819564523E0,1.034731117E1
1.524465329E1,2.978921025E0,-6.236117474E0,7.984232640E0,1.055988175E1
1.525464129E1,2.780054589E0,-6.308317723E0,7.973456807E0,1.054037900E1
1.526462829E1,2.597519719E0,-6.298149415E0,7.824199026E0,1.037457879E1
1.527461629E1,2.579314121E0,-6.351043328E0,7.744769279E0,1.034263331E1
1.528460429E1,2.732489536E0,-6.431368868E0,7.869325497E0,1.052403384E1
1.529459229E1,2.751724244E0,-6.590514291E0,7.975559465E0,1.070590555E1
1.530458029E1,2.762240462E0,-6.625925029E0,7.926781408E0,1.069423762E1
1.531456829E1,2.892460293E0,-6.510194598E0,7.880013038E0,1.062278522E1
1.532455629E1,2.934291566E0,-6.502183328E0,7.754034777E0,1.053629491E1
1.533454429E1,2.851943474E0,-6.499185460E0,7.566827981E0,1.037448210E1
1.534453229E1,2.741504188E0,-6.390414385E0,7.466049466E0,1.020270238E1
1.535452029E1,2.703933489E0,-6.318716996E0,7.427352592E0,1.011943711E1
1.536450829E1,2.659709243E0,-6.305603446E0,7.479652428E0,1.013804165E1
1.537449629E1,2.587035369E0,-6.134717399E0,7.462407820E0,1.000075197E1
1.538448429E1,2.492657215E0,-5.458966965E0,7.382852942E0,9.514209262E0
1.539447229E1,2.563034888E0,-4.654352669E0,7.291888978E0,9.022404971E0
1.540446029E1,2.812739647E0,-3.880142140E0,7.125852612E0,8.587478256E0
1.541444829E1,3.212509104E0,-2.965525346E0,7.013858551E0,8.264911802E0
1.542443629E1,3.571331386E0,-2.265207835E0,6.506740063E0,7.760363436E0
1.543442429E1,4.527495864E0,-1.354718590E0,6.037034399E0,7.666763697E0
1.544441229E1,4.879670154E0,-5.694030297E-1,5.746729497E0,7.560443144E0
1.545440029E1,4.089009069E0,-4.775578898E-1,5.072525067E0,6.532883534E0
1.546438829E1,3.506411505E0,-5.285666603E-1,3.824100087E0,5.215174573E0
1.547437629E1,2.293476492E0,-1.363547301E-1,1.984034531E0,3.035625150E0
1.548436429E1,7.149712175E-1,7.531763399E-1,-9.896377409E-1,1.434517793E0
1.549435229E1,-9.349814773E-1,2.418026571E0,-4.604533222E0,5.284199945E0
1.550434029E1,-2.540833887E0,4.483929137E0,-8.241845174E0,9.720569388E0
1.551432829E1,-4.739069176E0,6.109997125E0,-1.023720927E1,1.282931390E1
1.552431629E1,-6.766941159E0,7.614445952E0,-1.134809137E1,1.524960516E1
1.553430429E1,-7.811835673E0,9.169846246E0,-1.404308242E1,1.850186532E1
1.554429229E1,-8.304837813E0,1.076387032E1,-1.560491816E1,2.069649019E1
1.555428029E1,-8.248523279E0,1.220096975E1,-1.682553261E1,2.236068753E1
1.556426829E1,-8.323759403E0,1.317997374E1,-1.817873619E1,2.394709017E1
1.557425629E1,-8.651133313E0,1.285036737E1,-1.841855155E1,2.406692939E1
1.558424429E1,-8.533794898E0,1.202294659E1,-1.756183155E1,2.293021647E1
1.559423229E1,-8.365513201E0,1.126176307E1,-1.629981296E1,2.150565091E1
1.560422029E1,-8.613109455E0,1.031657470E1,-1.530916131E1,2.037124905E1
1.561420829E1,-8.485445441E0,9.284303738E0,-1.437859448E1,1.910353526E1
1.562419629E1,-7.783707642E0,8.556476247E0,-1.331002050E1,1.763394556E1
1.563418429E1,-7.133106083E0,7.559285073E0,-1.198792177E1,1.586613568E1
1.564417229E1,-6.497265235E0,6.040668443E0,-1.009902553E1,1.344226348E1
1.565415929E1,-5.659935182E0,4.471141276E0,-7.661112580E0,1.052229141E1
1.566414729E1,-4.517207395E0,3.613946478E0,-5.159039301E0,7.751223020E0
1.567413529E1,-2.836301003E0,2.659638784E0,-2.458987486E0,4.600532719E0
1.568412329E1,-3.805382565E-1,1.434643012E0,2.878391308E-1,1.511906512E0
1.569411129E1,1.835745049E0,4.713113093E-1,3.170622282E0,3.693905777E0
1.570409929E1,3.269685517E0,-3.262383807E-1,5.530604712E0,6.433106819E0
1.571408729E1,3.932969103E0,-1.306176175E0,6.922378863E0,8.068064903E0
1.572407529E1,4.008631196E0,-2.546247239E0,7.903654500E0,9.220642794E0
1.573406329E1,3.703467350E0,-3.782892419E0,8.411419106E0,9.938708007E0
1.574405129E1,3.093082940E0,-4.855658271E0,8.481835370E0,1.025115167E1
1.575403929E1,2.527047614E0,-5.725166720E0,8.290265967E0,1.038710804E1
1.576402729E1,2.138497795E0,-6.313873748E0,8.210508192E0,1.057594531E1
1.577401529E1,2.042776828E0,-6.696804392E0,8.113610473E0,1.071684660E1
1.578400329E1,1.936931408E0,-6.704216323E0,7.864509730E0,1.051421576E1
1.579399129E1,1.816514726E0,-6.289700189E0,7.391949456E0,9.874257996E0
1.580397929E1,1.943412462E0,-6.059492385E0,7.118355896E0,9.548051666E0
1.581396729E1,2.259621698E0,-5.996395665E0,7.207058743E0,9.643876135E0
1.582395529E1,2.628788582E0,-5.993937496E0,7.543212832E0,9.986885197E0
1.583394329E1,2.864435758E0,-6.102186999E0,7.849842575E0,1.034706272E1
1.584393129E1,3.160204298E0,-6.130496294E0,8.025720974E0,1.058215825E1
1.585391929E1,3.581144183E0,-6.066919518E0,8.160765928E0,1.078101139E1
1.586390729E1,3.928906457E0,-6.002046415E0,8.254547081E0,1.093610601E1
1.587389529E1,4.053718491E0,-5.920723924E0,8.160789317E0,1.086674227E1
1.588388329E1,3.946457167E0,-5.932104945E0,8.006511701E0,1.071767805E1
1.589387129E1,3.609393836E0,-6.039974379E0,7.857677844E0,1.054761184E1
1.590385929E1,3.190539068E0,-5.939213989E0,7.595330234E0,1.015592653E1
1.591384729E1,2.815168581E0,-5.682484969E0,7.135808081E0,9.546494987E0
1.592383529E1,2.567810016E0,-5.422255806E0,6.779622016E0,9.053053683E0
1.593382329E1,2.555426491E0,-5.306511342E0,6.535713601E0,8.798000878E0
1.594381129E1,2.964300062E0,-5.054948337E0,6.435568923E0,8.703799453E0
1.595379929E1,3.576924540E0,-4.547476677E0,6.424671468E0,8.645827708E0
1.596378729E1,4.261087948E0,-3.968509356E0,6.412229177E0,8.661559908E0
1.597377529E1,5.010451026E0,-3.318501289E0,6.480520563E0,8.838224769E0
1.598376329E1,5.123898704E0,-2.966181988E0,6.651903039E0,8.905076505E0
1.599375129E1,4.827517084E0,-2.760331346E0,6.498572087E0,8.553115778E0
1.600373929E1,4.368646895E0,-2.043372660E0,5.764583970E0,7.516041237E0
1.601372729E1,3.832963589E0,-1.214968382E0,4.470650110E0,6.012858758E0
1.602371529E1,3.016882318E0,-3.566479951E-1,2.592127417E0,3.993482347E0
1.603370329E1,1.501088431E0,7.894138741E-1,-1.078746969E-1,1.699434522E0
1.604369129E1,-3.943724763E-1,2.165135663E0,-3.036364363E0,3.750046751E0
1.605367929E1,-1.867708561E0,3.017288407E0,-5.089131160E0,6.204161552E0
1.606366729E1,-2.772235985E0,3.638044024E0,-6.736476581E0,8.142528686E0
1.607365529E1,-3.523835623E0,4.275985776E0,-7.857278479E0,9.614483707E0
1.608364329E1,-4.404020796E0,5.254854115E0,-8.872454519E0,1.121290953E1
1.609363129E1,-5.075939257E0,7.138949790E0,-1.057452579E1,1.373136406E1
1.610361958E1,-5.682946315E0,9.705588609E0,-1.329509022E1,1.741418252E1
1.611360758E1,-6.471444515E0,1.215301440E1,-1.682759785E1,2.174266318E1
1.612359558E1,-7.865390906E0,1.308312163E1,-1.897821195E1,2.435579961E1
1.613358258E1,-8.381654440E0,1.273634666E1,-1.894523131E1,2.431847954E1
1.614357058E1,-7.585891074E0,1.266735186E1,-1.819655850E1,2.343335844E1
1.615355858E1,-7.379206034E0,1.204267627E1,-1.733294229E1,2.235865876E1
1.616354658E1,-7.677221659E0,1.057823994E1,-1.681904337E1,2.130068338E1
1.617353458E1,-6.974657648E0,9.670707629E0,-1.588623706E1,1.986305523E1
1.618352258E1,-5.339089104E0,8.857901968E0,-1.438197768E1,1.771467137E1
1.619351058E1,-3.749288471E0,7.629254025E0,-1.230073845E1,1.495228569E1
1.620349858E1,-2.400246650E0,6.235856688E0,-9.780128329E0,1.184474579E1
1.621348658E1,-1.508024106E0,4.992466160E0,-7.186718034E0,8.879626747E0
1.622347458E1,-8.565963355E-1,3.783882937E0,-4.684410281E0,6.082370183E0
1.623346258E1,-4.694308448E-1,2.403626340E0,-2.366696203E0,3.405735724E0
1.624345058E1,-3.683672771E-1,9.878841609E-1,-3.249823987E-1,1.103278354E0
1.625343858E1,-3.526619482E-1,-3.892339432E-1,1.403092605E0,1.498179686E0
1.626342658E1,-2.752600157E-1,-1.523251718E0,3.026369133E0,3.399260802E0
1.627341458E1,-2.433552682E-2,-2.445845576E0,4.371766677E0,5.009500642E0
1.628340258E1,5.755645332E-1,-3.299377094E0,5.122698271E0,6.120392251E0
1.629339058E1,1.446091275E0,-4.076155427E0,5.489854297E0,6.988900002E0
1.630337858E1,2.923091225E0,-4.623960304E0,5.700692030E0,7.900845576E0
1.631336658E1,3.634900560E0,-5.152258869E0,7.506849582E0,9.803625054E0
1.632335458E1,4.040799945E0,-6.095798331E0,8.814182922E0,1.145323719E1
1.633334258E1,4.193866018E0,-6.828676062E0,9.105395311E0,1.212961470E1
1.634333058E1,3.647224737E0,-7.038377681E0,8.890250520E0,1.191123684E1
1.635331858E1,3.015568741E0,-7.032822826E0,8.449338884E0,1.139936750E1
1.636330658E1,2.466827140E0,-7.160008537E0,8.021006364E0,1.103120580E1
1.637329458E1,2.095591511E0,-7.321601604E0,7.859953580E0,1.094423246E1
1.638328258E1,2.070532099E0,-7.225538283E0,8.044076554E0,1.100920861E1
1.639327058E1,2.380744431E0,-7.072690896E0,8.379054183E0,1.122049239E1
1.640325858E1,2.565538958E0,-7.150273508E0,8.607802522E0,1.148053420E1
1.641324658E1,2.664166575E0,-7.284174746E0,8.535984095E0,1.153343009E1
1.642323458E1,2.704520842E0,-7.359110323E0,8.208597322E0,1.135129983E1
1.643322258E1,2.844791745E0,-7.119844598E0,7.885543334E0,1.099849175E1
1.644321058E1,3.198700612E0,-6.748417765E0,7.649062638E0,1.069022858E1
1.645319858E1,3.062105269E0,-6.587457367E0,7.279320973E0,1.028394851E1
1.646318658E1,2.645838478E0,-6.383495375E0,6.863958746E0,9.739784603E0
1.647317458E1,2.437016865E0,-5.839524225E0,6.589464716E0,9.135652118E0
1.648316258E1,2.163756305E0,-5.381603624E0,6.430594697E0,8.660025812E0
1.649315058E1,1.897100759E0,-4.748534941E0,6.518140379E0,8.284547627E0
1.650313858E1,1.804862979E0,-3.921730462E0,6.887366320E0,8.128549379E0
1.651312658E1,2.039041042E0,-3.202357460E0,7.429155874E0,8.342969416E0
1.652311458E1,2.749931488E0,-2.699549539E0,7.946806367E0,8.831841390E0
1.653310258E1,4.400843419E0,-2.261635771E0,7.914268951E0,9.333706240E0
1.654309058E1,6.978751869E0,-1.945124234E0,6.486756034E0,9.724427478E0
1.655307858E1,8.482134163E0,-1.614853029E0,5.598799619E0,1.029081666E1
1.656306658E1,6.581755162E0,-1.671104413E0,5.998163279E0,9.060356157E0
1.657305458E1,4.158359678E0,-1.635506564E0,3.931671313E0,5.951880060E0
1.658304258E1,1.656241960E0,-6.707691908E-1,1.729732105E0,2.486974446E0
1.659303058E1,-3.253332317E-1,7.717102593E-1,2.067610538E-1,8.626288712E-1
1.660301858E1,-1.608644163E0,2.980211797E0,-1.256559042E0,3.612248472E0
1.661300658E1,-2.428360940E0,5.482051772E0,-3.172783413E0,6.783537652E0
1.662299458E1,-3.539101533E0,7.563612598E0,-6.164149359E0,1.037931657E1
1.663298258E1,-5.162934716E0,9.028979219E0,-7.990140667E0,1.311566653E1
1.664297058E1,-6.379041551E0,9.647067921E0,-9.240985810E0,1.480384779E1
1.665295858E1,-6.750846698E0,1.041025645E1,-1.470020187E1,1.923650970E1
1.666294658E1,-8.189141296E0,1.157022709E1,-1.846228521E1,2.327634347E1
1.667293458E1,-9.636797871E0,1.182589542E1,-1.904918779E1,2.440473789E1
1.668292258E1,-1.031267344E1,1.129209492E1,-1.964368590E1,2.489451821E1
1.669291058E1,-1.099013184E1,1.081088661E1,-1.989096699E1,2.516562805E1
