"Time (s)","Linear Acceleration x (m/s^2)","Linear Acceleration y (m/s^2)","Linear Acceleration z (m/s^2)","Absolute acceleration (m/s^2)"
2.763958331E-3,-1.506284121E0,8.029589492E-1,-2.804716390E-1,1.729826369E0
1.275195833E-2,-1.726729560E0,6.429963782E-1,-1.792004952E0,2.570276457E0
2.273995833E-2,-1.800167665E0,2.835294405E-1,-2.543068108E0,3.128607992E0
3.272795833E-2,-1.778271012E0,3.737180641E-1,-2.164122925E0,2.825834570E0
4.271595833E-2,-1.391107129E0,1.042117963E0,-9.956521869E-1,2.003125600E0
5.270395833E-2,-6.336377634E-1,1.860016841E0,5.460767323E-1,2.039450725E0
6.269195833E-2,-1.378087865E-1,1.825679359E0,1.325018828E0,2.260037893E0
7.267895833E-2,-8.078805506E-2,7.433886856E-1,1.256546763E0,1.462211755E0
8.266695833E-2,2.579556195E-1,-5.004997328E-1,1.116956769E0,1.250853112E0
9.265495833E-2,7.348225877E-1,-8.622611180E-1,9.461040509E-1,1.475998423E0
1.026429583E-1,1.343125754E0,-8.117476067E-1,3.828961462E-1,1.615404107E0
1.126309583E-1,2.025844169E0,-8.893427896E-1,-7.784456670E-2,2.213828126E0
1.226189583E-1,9.871248268E-1,-1.386377024E0,1.539525104E-1,1.708846995E0
1.326069583E-1,-4.933057572E-1,-1.874006889E0,-4.112288296E-1,1.981000136E0
1.425949583E-1,-4.113272090E-1,-1.301746617E0,-8.969272131E-1,1.633466484E0
1.525819583E-1,-1.955604929E-2,-1.158987213E-1,8.021561265E-2,1.423007279E-1
1.625699583E-1,7.985531453E-1,5.748703225E-1,1.364340184E0,1.682137673E0
1.725579583E-1,7.126484111E-1,6.546794075E-1,2.501744666E0,2.682386858E0
1.825459583E-1,3.385203475E-2,1.091392669E0,2.805339704E0,3.010351270E0
1.925339583E-1,-6.174835876E-1,1.142976440E0,2.628411144E0,2.931932173E0
2.025219583E-1,-7.353878673E-3,5.907085659E-1,4.200204107E0,4.241545147E0
2.125099583E-1,6.077560866E-1,5.263683265E-1,2.551757655E0,2.675424865E0
2.224969583E-1,3.103807684E-1,-6.092987648E-1,6.878313661E-1,9.698933933E-1
2.324849583E-1,-8.761926575E-2,-2.327993483E0,-1.267336630E0,2.652050702E0
2.424729583E-1,9.735222298E-1,-2.199324918E0,-1.537283281E0,2.854472896E0
2.524609583E-1,2.571779983E0,-1.828891089E0,-8.068485171E-1,3.257284057E0
2.624489583E-1,2.341279819E0,-1.576032194E0,8.556172192E-2,2.823612841E0
2.724369583E-1,1.146019989E0,-7.682701962E-1,1.349601692E0,1.930032548E0
2.824249583E-1,1.022057482E0,3.066822217E-1,1.521164846E0,1.858116781E0
2.924119583E-1,1.151221452E0,7.236913164E-1,1.125152226E0,1.764938380E0
3.023999583E-1,1.272081938E0,2.735014656E-1,8.485461813E-1,1.553391815E0
3.123879583E-1,4.965342242E-1,-2.459189799E-1,-8.291129601E-1,9.972214805E-1
3.223759583E-1,-2.066384815E-1,-9.936524391E-2,-2.396953205E0,2.407894845E0
3.323639583E-1,-1.418454849E0,-8.689681667E-1,-2.540806990E0,3.036909612E0
3.423519583E-1,-5.102446293E-1,6.172928953E-1,-2.973449492E0,3.079415851E0
3.523399583E-1,7.694261176E-1,2.082857738E0,-3.848611615E0,4.443211031E0
3.623269583E-1,2.057516051E0,2.590452774E0,-2.981432111E0,4.453398176E0
3.723149583E-1,1.877296825E0,1.999354236E0,-1.462566390E0,3.108176503E0
3.823029583E-1,-1.788072992E0,4.220584577E-1,-2.988164595E0,3.507772230E0
3.922909583E-1,-3.585127014E0,-9.875011683E-1,-1.731163504E0,4.101855841E0
4.022789583E-1,-2.949650448E0,-1.424936049E0,-1.625109045E0,3.656755381E0
4.122669583E-1,-1.099360085E0,-1.329777877E0,-1.611278041E0,2.360745374E0
4.222549583E-1,3.943153929E-1,-1.343624668E0,-1.488050895E0,2.043307941E0
4.322419583E-1,8.666680183E-1,-1.010580713E0,-1.593879066E0,2.076737179E0
4.422299583E-1,1.029124427E0,-4.490494975E-1,-1.421942275E0,1.811811902E0
4.522179583E-1,1.138662876E0,5.606573492E-2,-1.655211681E0,2.009831391E0
4.622059583E-1,3.060922560E-1,-3.209185839E-1,-1.232856184E0,1.310196771E0
4.721939583E-1,-7.949349613E-1,-9.133076030E-1,1.766250890E-1,1.223621180E0
4.821819583E-1,4.677110142E-2,-4.303831387E-1,9.293541169E-1,1.025239609E0
4.921699583E-1,2.520268718E-1,-1.170141288E0,-7.011624330E-1,1.387219138E0
5.021579583E-1,1.525060645E-1,-1.125490195E0,-1.423802859E0,1.821318440E0
5.121449583E-1,1.289200411E-1,-4.833230983E-1,-1.124161123E0,1.230430748E0
5.221329583E-1,-3.466143558E-1,-2.614949392E-1,-2.715552199E-1,5.121165417E-1
5.321209583E-1,-6.150980698E-1,-7.848243946E-1,1.287943388E0,1.628831832E0
5.421089583E-1,-3.698068616E-1,-1.022518973E0,2.878798274E0,3.077301036E0
5.520969583E-1,1.071234466E0,6.214099199E-2,4.086717253E0,4.225241140E0
5.620849583E-1,2.124916614E0,1.007810449E0,4.585640869E0,5.153547777E0
5.720729583E-1,2.255602322E0,1.620926239E0,5.013257689E0,5.731308434E0
5.820599583E-1,1.345362899E0,2.170309280E0,4.354962364E0,5.048360218E0
5.920479583E-1,1.597367954E-3,1.566267929E0,3.429629962E0,3.770352696E0
6.020359583E-1,3.305887091E-1,4.323890260E-1,5.103940988E0,5.132880553E0
6.120239583E-1,2.947147620E-1,-9.932299778E-1,7.945038169E0,8.012302671E0
6.220119583E-1,-1.145931915E0,-1.310897948E0,9.458717410E0,9.617637362E0
6.319999583E-1,-1.211233327E0,-3.983234400E-1,9.586790144E0,9.671209490E0
6.419883750E-1,-1.601601484E0,1.483685656E-1,6.926340936E0,7.110649710E0
6.519753750E-1,-1.721351291E0,1.140813993E0,2.568615763E0,3.295799413E0
6.619633750E-1,-1.155328683E0,2.283624664E0,-7.123656982E-1,2.656537382E0
6.719513750E-1,-2.016812852E-1,2.660435175E0,-1.758517363E0,3.195461465E0
6.819393750E-1,8.266998873E-1,1.965165712E0,-5.718155909E-1,2.207324636E0
6.919273750E-1,1.839252208E0,9.017007338E-1,9.267456740E-1,2.248281665E0
7.019153750E-1,1.908561010E0,-1.931499052E-1,2.972711574E0,3.537926810E0
7.119033750E-1,1.448099355E0,-1.248768651E0,4.063116136E0,4.490582103E0
7.218903750E-1,6.323697947E-1,-1.499079474E0,3.631963504E0,3.979734881E0
7.318783750E-1,3.719772018E-2,-1.154966155E0,1.706553158E0,2.060983787E0
7.418663750E-1,-1.072248885E-1,-8.318539886E-1,-8.619269496E-1,1.202662173E0
7.518543750E-1,-5.080313485E-1,-6.860720851E-1,-3.501853015E0,3.604409147E0
7.618423750E-1,-9.091835618E-1,-6.487161246E-1,-5.353183233E0,5.468456645E0
7.718303750E-1,-1.533614884E0,-9.445333426E-1,-5.669183723E0,5.948425164E0
7.818183750E-1,-1.510290195E0,-1.408610623E0,-5.277589844E0,5.667284616E0
7.918053750E-1,-1.222830475E0,-1.198614305E0,-5.091018056E0,5.371262000E0
8.017933750E-1,-1.338554840E0,-9.619020581E-1,-4.245059853E0,4.553846482E0
8.117813750E-1,-8.942676801E-1,-8.112092974E-1,-3.922157308E0,4.103790097E0
8.217693750E-1,-9.229110700E-1,-7.688357681E-2,-4.594919815E0,4.687319494E0
8.317573750E-1,-1.687452351E0,8.744462769E-1,-5.616699700E0,5.929541909E0
8.417453750E-1,-2.131731251E0,9.892228809E-1,-6.674365702E0,7.076015656E0
8.517333750E-1,-2.547462291E0,9.137264098E-1,-7.163448454E0,7.657640226E0
8.617203750E-1,-1.673545918E0,8.005344012E-1,-7.105444075E0,7.343633077E0
8.717083750E-1,2.686206485E-1,4.922449261E-1,-7.218153834E0,7.239903791E0
8.816963750E-1,1.253193093E0,1.164913000E-1,-7.407433468E0,7.513596591E0
8.916843750E-1,8.606743298E-1,-1.677792750E-1,-7.477681916E0,7.528920044E0
9.016723750E-1,-2.692306593E-1,-5.452739096E-1,-7.639222943E0,7.663389326E0
9.116603750E-1,-9.967361145E-1,-8.709253760E-1,-7.892283420E0,8.002507824E0
9.216483750E-1,-1.026901900E0,-7.182360104E-1,-7.930179225E0,8.028582254E0
9.316363750E-1,-8.104125412E-1,-2.531354673E-1,-7.710979974E0,7.757580693E0
9.416233750E-1,-2.766197126E-1,-2.477412647E-1,-7.688780435E0,7.697742447E0
9.516113750E-1,1.928419031E-2,2.547851130E-2,-7.316149076E0,7.316218855E0
9.615993750E-1,-1.480465302E-1,4.676731718E-1,-6.786446886E0,6.804152946E0
9.715873750E-1,-3.466739608E-1,2.666726486E-1,-6.243071567E0,6.258373569E0
9.815753750E-1,-5.285339159E-1,9.662377685E-3,-5.509731322E0,5.535032132E0
9.915633750E-1,-8.785915142E-1,-3.463582112E-1,-4.568081680E0,4.664681907E0
1.001550375E0,-1.075654961E0,-8.278536160E-1,-4.225930102E0,4.438565132E0
1.011538375E0,-1.396190114E0,-1.345111323E0,-3.810529284E0,4.275371882E0
1.021526375E0,-1.584032793E0,-2.508963346E0,-2.885617881E0,4.138942802E0
1.031514375E0,-2.238357129E0,-3.538980204E0,-1.820151694E0,4.565914553E0
1.041502375E0,-2.790286339E0,-2.844248831E0,7.030101532E-1,4.045945197E0
1.051490375E0,-2.397999126E0,-8.501184976E-1,4.149052665E0,4.867005166E0
1.061478375E0,-1.178612880E0,1.035983064E0,6.960938326E0,7.135618516E0
1.071466375E0,4.081296591E-1,2.761260176E0,9.369489484E0,9.776423721E0
1.081453375E0,2.401228397E0,4.302999620E0,1.131488854E1,1.234132919E1
1.091441375E0,3.811477702E0,4.777219335E0,1.393376638E1,1.521509226E1
1.101429375E0,4.372681474E0,3.914771983E0,1.791485134E1,1.885172888E1
1.111417375E0,3.713276347E0,2.682133607E0,1.999856979E1,2.051645816E1
1.121405375E0,2.347529615E0,2.051615772E0,2.025569291E1,2.049422158E1
1.131393375E0,1.273140576E0,1.944523725E0,1.906131842E1,1.920249774E1
1.141380375E0,4.812013264E-1,1.813500194E0,1.684042313E1,1.694462124E1
1.151368375E0,-2.766180316E-1,1.722183934E0,1.448132889E1,1.458599745E1
1.161356375E0,-6.812088096E-1,1.957332928E0,1.261374926E1,1.278287401E1
1.171344375E0,-7.595338713E-1,1.902412078E0,1.175642582E1,1.193354983E1
1.181332375E0,-5.013767421E-1,1.575415021E0,1.142727670E1,1.154625324E1
1.191320375E0,-3.078564523E-1,1.130185217E0,1.098169314E1,1.104398834E1
1.201308375E0,3.981277775E-2,5.677611315E-1,9.942308457E0,9.958586005E0
1.211296375E0,4.731478832E-1,2.283818646E-1,7.996484896E0,8.013725593E0
1.221283375E0,7.900181108E-1,2.104949395E-1,5.795298809E0,5.852685283E0
1.231271375E0,1.235784908E0,9.165890604E-2,3.424464532E0,3.641774708E0
1.241259375E0,1.493833791E0,-6.688147590E-2,6.174215341E-1,1.617783013E0
1.251247375E0,1.299356275E0,-7.876930386E-2,-1.993478953E0,2.380859020E0
1.261235375E0,8.281988210E-1,-1.324008429E-1,-4.180436425E0,4.263741547E0
1.271223375E0,3.074851175E-1,-4.378633355E-1,-5.915714614E0,5.939861177E0
1.281210375E0,-3.130412880E-1,-8.058150217E-1,-6.990245740E0,7.043498293E0
1.291198375E0,-7.379830078E-1,-1.308724246E0,-7.815516495E0,7.958622755E0
1.301186375E0,-5.404437440E-1,-1.851548172E0,-9.083034389E0,9.285570730E0
1.311174375E0,-6.480781203E-1,-2.149968278E0,-9.958746150E0,1.020877043E1
1.321162375E0,-8.437438631E-1,-2.117640338E0,-1.043415285E1,1.068025515E1
1.331150375E0,-7.765369166E-1,-1.865723431E0,-1.072140083E1,1.091019565E1
1.341138375E0,-6.794655354E-1,-1.542280604E0,-1.094811141E1,1.107706849E1
1.351126375E0,-6.094344933E-1,-1.192963117E0,-1.109693474E1,1.117750116E1
1.361113375E0,-4.399056583E-1,-8.668219462E-1,-1.117252287E1,1.121472980E1
1.371101375E0,-5.231912784E-1,-7.064636649E-1,-1.115892692E1,1.119350124E1
1.381089375E0,-7.008263643E-1,-7.485294114E-1,-1.134734643E1,1.139358262E1
1.391077375E0,-6.508471423E-1,-8.051398145E-1,-1.156627203E1,1.161251484E1
1.401065375E0,-1.790854878E-1,-6.716940741E-1,-1.150083233E1,1.152182229E1
1.411053375E0,5.249868487E-1,-1.977294445E-1,-1.094328278E1,1.095765240E1
1.421041375E0,6.931329634E-1,2.198311888E-1,-1.024476855E1,1.027054243E1
1.431028375E0,4.302940417E-1,6.897375584E-2,-9.895757604E0,9.905348499E0
1.441016375E0,5.281613752E-1,-5.112074465E-2,-9.811571732E0,9.825910014E0
1.451004375E0,7.895691908E-1,1.284818928E-1,-9.572439907E0,9.605807248E0
1.460992375E0,6.791068818E-1,3.651125707E-1,-9.139113865E0,9.171580866E0
1.470980375E0,3.254612492E-1,4.986074276E-1,-8.167252829E0,8.188928695E0
1.480968375E0,1.508390599E-1,4.157225610E-1,-6.617312665E0,6.632073927E0
1.490956375E0,1.778380574E-1,1.110159673E-1,-4.924322124E0,4.928782740E0
1.500943375E0,4.099371066E-1,-3.499549797E-1,-4.087487331E0,4.122871524E0
1.510931375E0,7.870223629E-1,-7.146458200E-1,-3.929639990E0,4.070895884E0
1.520919375E0,6.669866270E-1,-8.427428198E-1,-3.761009215E0,3.911556843E0
1.530907375E0,-2.320124008E-1,-8.222930601E-1,-3.541121746E0,3.642737824E0
1.540895375E0,-8.749087185E-1,-8.877975167E-1,-2.934294782E0,3.188061412E0
1.550883375E0,-8.155958786E-1,-9.994726114E-1,-1.130815839E0,1.715484363E0
1.560870375E0,-5.492556807E-1,-1.070113116E0,8.362389618E-1,1.464963988E0
1.570858375E0,-5.520996933E-1,-8.342437457E-1,3.024729574E0,3.185869692E0
1.580846375E0,-1.409922738E0,-1.113830262E-1,5.934001781E0,6.100218475E0
1.590834375E0,-1.909641283E0,1.165208138E0,9.228876811E0,9.496136427E0
1.600822375E0,-1.000006170E0,2.764405101E0,1.326222068E1,1.358412475E1
1.610810375E0,1.135509984E0,3.553143329E0,1.748795782E1,1.788135563E1
1.620798375E0,3.699128424E0,3.549578867E0,2.057549351E1,2.120457485E1
1.630785375E0,5.752725817E0,3.383128810E0,2.080979144E1,2.185376020E1
1.640773458E0,5.975228745E0,3.248760964E0,2.021469224E1,2.132818765E1
1.650761458E0,4.896050252E0,3.932966179E0,1.949187347E1,2.047859034E1
1.660749458E0,3.573509474E0,4.190462354E0,1.804842046E1,1.886996094E1
1.670737458E0,2.316185031E0,3.682541919E0,1.628403483E1,1.685513626E1
1.680725458E0,9.990247147E-1,2.965233570E0,1.428940573E1,1.462797924E1
1.690713458E0,-3.502118187E-1,2.372322540E0,1.231607453E1,1.254736045E1
1.700700458E0,-1.487272484E0,1.954416921E0,1.074338168E1,1.102052516E1
1.710688458E0,-2.190223434E0,1.459940552E0,9.433696589E0,9.794035759E0
1.720676458E0,-2.212910339E0,9.212194705E-1,8.409110041E0,8.744069370E0
1.730664458E0,-1.539807963E0,7.716608503E-1,7.481458633E0,7.677153920E0
1.740652458E0,-6.962819814E-1,8.079701592E-1,7.095065267E0,7.174787490E0
1.750640458E0,3.767852942E-1,5.180472270E-1,6.159955736E0,6.193173238E0
1.760628458E0,1.318793444E0,-8.370435387E-3,4.225123771E0,4.426167314E0
1.770615458E0,2.000701288E0,-3.773800291E-1,2.271788292E0,3.050613606E0
1.780603458E0,2.313421637E0,-5.240089019E-1,1.780909860E-1,2.378701620E0
1.790591458E0,2.015373121E0,-5.670699175E-1,-2.008923789E0,2.901563699E0
1.800579458E0,1.448443756E0,-6.989301854E-1,-4.097003675E0,4.401355681E0
1.810567458E0,9.376536548E-1,-1.030590397E0,-6.056306237E0,6.214511741E0
1.820555458E0,4.521503491E-1,-1.458714098E0,-7.668519832E0,7.819110127E0
1.830543458E0,-1.218180221E-1,-1.707826243E0,-8.978282690E0,9.140080425E0
1.840530458E0,-6.431103259E-1,-1.788949782E0,-9.765781016E0,9.949090967E0
1.850518458E0,-9.492954612E-1,-1.805958893E0,-1.050907205E1,1.070529051E1
1.860506458E0,-1.081652596E0,-1.756776355E0,-1.116694696E1,1.135592092E1
1.870494458E0,-9.695844224E-1,-1.724598981E0,-1.156060842E1,1.172868290E1
1.880482458E0,-7.081538026E-1,-1.653303003E0,-1.169705437E1,1.183452464E1
1.890470458E0,-4.422654849E-1,-1.463709375E0,-1.162249184E1,1.172264307E1
1.900458458E0,-1.060189002E-1,-1.288789041E0,-1.148307902E1,1.155566186E1
1.910445458E0,2.065117066E-1,-1.154631987E0,-1.135813688E1,1.141854174E1
1.920433458E0,5.102060742E-1,-1.004188829E0,-1.115495316E1,1.121167630E1
1.930421458E0,6.445769537E-1,-9.129209559E-1,-1.098526930E1,1.104196747E1
1.940409458E0,6.264211299E-1,-8.712168597E-1,-1.081075564E1,1.086387867E1
1.950397458E0,6.567089029E-1,-8.642263672E-1,-1.064587585E1,1.070106660E1
1.960385458E0,5.813150870E-1,-8.393005639E-1,-1.021193293E1,1.026284204E1
1.970373458E0,3.167551105E-1,-8.791027071E-1,-9.349950428E0,9.396527464E0
1.980360458E0,5.105448838E-2,-1.081308634E0,-8.334049918E0,8.404059909E0
1.990348458E0,-2.572478141E-1,-1.385461496E0,-7.571671230E0,7.701680675E0
2.000336458E0,-6.142646954E-1,-1.580353287E0,-6.941040836E0,7.145130196E0
2.010324458E0,-8.069314013E-1,-1.799591129E0,-6.627026644E0,6.914271376E0
2.020312458E0,-7.080468716E-1,-1.895658251E0,-6.703888294E0,7.002640133E0
2.030300458E0,-3.857564944E-1,-1.637943537E0,-6.878537609E0,7.081380285E0
2.040288458E0,2.330589793E-1,-1.129432388E0,-6.695587587E0,6.794175972E0
2.050275458E0,4.122913783E-1,-6.678178087E-1,-6.182685032E0,6.232299657E0
2.060263458E0,3.934280779E-2,-4.857708889E-1,-5.285854298E0,5.308274379E0
2.070251458E0,-4.056314363E-1,-4.955581047E-1,-3.980572747E0,4.031758189E0
2.080239458E0,-7.078286243E-1,-4.259874943E-1,-2.759577055E0,2.880581925E0
2.090227458E0,-9.097997122E-1,-2.097834796E-1,-1.841001695E0,2.064226700E0
2.100215458E0,-1.130106718E0,3.127368674E-1,-1.072792164E0,1.589285553E0
2.110203458E0,-1.305539998E0,1.333764508E0,3.053866249E-1,1.891196299E0
2.120190458E0,-1.343569412E0,3.031589819E0,3.476871956E0,4.804618007E0
2.130178458E0,-4.566573464E-1,5.039729789E0,7.932888240E0,9.409470129E0
2.140166458E0,1.470362629E0,6.639901628E0,1.393354886E1,1.550464588E1
2.150154458E0,3.531682586E0,7.235064567E0,1.966540948E1,2.124964167E1
2.160142458E0,4.558641350E0,6.032125661E0,2.229679685E1,2.354389307E1
2.170130458E0,3.622428449E0,4.168361925E0,2.189590473E1,2.258158261E1
2.180117458E0,1.697420976E0,3.497602382E0,1.990236204E1,2.027852251E1
2.190105458E0,-8.447194710E-2,3.522311254E0,1.801149646E1,1.835286945E1
2.200093458E0,-2.277576743E-1,3.321630719E0,1.727458123E1,1.759250582E1
2.210081458E0,6.167425992E-1,2.742302333E0,1.652591309E1,1.676324542E1
2.220069458E0,5.699527410E-1,2.561403222E0,1.478988880E1,1.502086693E1
2.230057458E0,2.557070728E-1,2.801958551E0,1.306174655E1,1.336134652E1
2.240045458E0,6.114795935E-1,2.960653446E0,1.196040243E1,1.233655554E1
2.250032458E0,1.728124413E0,3.009434719E0,1.105805310E1,1.158980801E1
2.260020458E0,2.829122376E0,2.924583434E0,9.541537372E0,1.037294833E1
2.270008458E0,2.957469637E0,2.383685288E0,7.582404379E0,8.480650823E0
2.279996458E0,2.344438923E0,1.472081856E0,5.113944404E0,5.815139399E0
2.289984458E0,1.537011824E0,4.777762833E-1,2.799337537E0,3.229081320E0
2.299972458E0,9.117977057E-1,-3.195810333E-1,8.368049723E-1,1.278182168E0
2.309960458E0,6.601059160E-1,-8.677466834E-1,-1.313275865E0,1.706873640E0
2.319947458E0,6.691063888E-1,-1.170493583E0,-3.400640051E0,3.658156824E0
2.329935458E0,6.038235417E-1,-1.391472141E0,-5.256572027E0,5.471046250E0
2.339923458E0,3.167435257E-1,-1.701278384E0,-6.786274978E0,7.003442202E0
2.349911458E0,-1.340968278E-1,-1.932265914E0,-7.978956113E0,8.210686584E0
2.359899458E0,-5.854347794E-1,-2.170162807E0,-8.786423850E0,9.069376195E0
2.369887458E0,-8.976471515E-1,-2.401864282E0,-9.361496925E0,9.706304503E0
2.379875458E0,-1.048854248E0,-2.576551311E0,-9.820868804E0,1.020726094E1
2.389862458E0,-1.321584466E0,-2.613767962E0,-1.016064583E1,1.057436013E1
2.399850458E0,-1.461217291E0,-2.653329638E0,-1.020843980E1,1.064835937E1
2.409838458E0,-1.397294653E0,-2.663551156E0,-1.006807739E1,1.050776472E1
2.419826458E0,-1.039995131E0,-2.533802025E0,-9.773653123E0,1.015017428E1
2.429814458E0,-7.558938333E-1,-2.437970839E0,-9.706579712E0,1.003657148E1
2.439802458E0,-4.408715086E-1,-2.446403401E0,-1.001426429E1,1.031817555E1
2.449790458E0,-1.083321410E-1,-2.484493625E0,-1.048877520E1,1.077955702E1
2.459777458E0,-2.988587751E-2,-2.420135661E0,-1.092446527E1,1.118936509E1
2.469765458E0,4.552147835E-2,-2.386174448E0,-1.111701408E1,1.137030795E1
2.479753458E0,1.185903043E-1,-2.541197291E0,-1.108438428E1,1.137256885E1
2.489741458E0,1.642641483E-1,-2.735992603E0,-1.102438015E1,1.135999982E1
2.499729458E0,1.899181308E-1,-2.813985689E0,-1.091463025E1,1.127314233E1
2.509717458E0,2.310909527E-1,-2.735181302E0,-1.067186088E1,1.101922113E1
2.519705458E0,2.481694453E-1,-2.561350012E0,-1.043205019E1,1.074475561E1
2.529692458E0,2.313920660E-1,-2.395646060E0,-1.009330695E1,1.037629547E1
2.539680458E0,1.590207855E-1,-2.225568976E0,-9.624953751E0,9.880191273E0
2.549668458E0,6.268810865E-2,-2.053961967E0,-8.897349624E0,9.131567220E0
2.559656458E0,1.079535246E-1,-1.835838604E0,-7.888832978E0,8.100348332E0
2.569644458E0,1.027740610E-1,-1.638690373E0,-6.423259950E0,6.629791628E0
2.579632458E0,-2.758564317E-1,-1.524943902E0,-4.572967029E0,4.828413624E0
2.589620458E0,-9.233183286E-1,-1.428033027E0,-2.668932348E0,3.164647681E0
2.599607458E0,-1.696868414E0,-1.209902062E0,-6.111381161E-1,2.171799994E0
2.609595458E0,-2.322108553E0,-5.452850193E-1,1.424181758E0,2.778096032E0
2.619583458E0,-2.109613135E0,1.119643564E0,3.004738528E0,3.838296876E0
2.629571458E0,-8.174272996E-1,3.562635699E0,4.382205711E0,5.706512719E0
2.639559458E0,3.209455907E-1,5.863347536E0,5.576636333E0,8.098192588E0
2.649547375E0,7.132397108E-1,7.184636425E0,7.895509914E0,1.069891528E1
2.659534375E0,1.029702059E0,6.908568909E0,1.309883895E1,1.484480355E1
2.669522375E0,2.224412981E0,5.530834508E0,1.900026180E1,1.991351531E1
2.679510375E0,4.103779428E0,4.801706012E0,2.319513968E1,2.403979806E1
2.689498375E0,5.096071805E0,4.803306687E0,2.526301685E1,2.621567705E1
2.699486375E0,4.522447670E0,4.461543364E0,2.613453031E1,2.689556797E1
2.709474375E0,3.002687910E0,3.317886162E0,2.655766056E1,2.693202253E1
2.719462375E0,1.642122396E0,1.839968054E0,2.519466290E1,2.531507628E1
2.729449375E0,5.002007208E-1,1.288827633E0,2.149494478E1,2.153935766E1
2.739437375E0,-7.482222133E-1,1.919554214E0,1.682614072E1,1.695180039E1
2.749425375E0,-1.399874737E0,2.325709561E0,1.132527085E1,1.164604371E1
2.759413375E0,-1.284039494E0,2.314894989E0,6.573975441E0,7.086935116E0
2.769401375E0,-8.118258863E-1,2.097937707E0,2.836380817E0,3.620146410E0
2.779389375E0,-3.046201646E-1,1.841080925E0,-2.762867868E-2,1.866316094E0
2.789377375E0,1.301470245E-1,1.571024200E0,-2.013043152E0,2.556833592E0
2.799364375E0,5.958647503E-1,1.119371815E0,-3.342952591E0,3.575385306E0
2.809352375E0,9.729649901E-1,5.611052459E-1,-4.154319252E0,4.303471670E0
2.819340375E0,1.210060449E0,-2.235054329E-2,-4.608854315E0,4.765111114E0
2.829328375E0,1.146148847E0,-5.398224042E-1,-4.964004253E0,5.123124401E0
2.839316375E0,7.526085752E-1,-1.006152178E0,-5.600477185E0,5.739695687E0
2.849304375E0,3.580764699E-1,-1.430823757E0,-6.232124410E0,6.404283726E0
2.859291375E0,-1.513687628E-1,-1.886002013E0,-6.838147382E0,7.095081093E0
2.869279375E0,-6.305397624E-1,-2.227072295E0,-7.664792817E0,8.006652255E0
2.879267375E0,-1.009951699E0,-2.430449711E0,-8.359146168E0,8.763698585E0
2.889255375E0,-1.268459003E0,-2.602729003E0,-8.891749161E0,9.351277434E0
2.899243375E0,-1.374987086E0,-2.698034526E0,-9.282226807E0,9.763693680E0
2.909231375E0,-1.303615095E0,-2.697222055E0,-9.648375943E0,1.010275098E1
2.919219375E0,-1.108631722E0,-2.592214540E0,-1.007210495E1,1.045925134E1
2.929206375E0,-7.859525418E-1,-2.369628728E0,-1.041492486E1,1.070997300E1
2.939194375E0,-1.244482733E-1,-2.017770334E0,-1.061433597E1,1.080513825E1
2.949182375E0,5.416145393E-1,-1.707465323E0,-1.067208658E1,1.082137773E1
2.959170375E0,8.356350906E-1,-1.465216787E0,-1.065205402E1,1.078477636E1
2.969158375E0,8.644928540E-1,-1.309193485E0,-1.060649836E1,1.072190016E1
2.979146375E0,7.448187684E-1,-1.138458296E0,-1.059418646E1,1.068118107E1
2.989134375E0,6.316250787E-1,-9.891543223E-1,-1.059991323E1,1.066468644E1
2.999121375E0,6.700740299E-1,-8.363148294E-1,-1.039877252E1,1.045384578E1
3.009109375E0,6.973463208E-1,-7.694592275E-1,-1.002990676E1,1.008352067E1
3.019097375E0,5.067732470E-1,-9.012735946E-1,-9.862056592E0,9.916111810E0
3.029085375E0,3.670760291E-1,-9.205262831E-1,-9.682124902E0,9.732710623E0
3.039073375E0,4.708072428E-1,-8.344956145E-1,-9.293103797E0,9.342366969E0
3.049061375E0,4.816437048E-1,-8.115176649E-1,-8.736964592E0,8.787780827E0
3.059049375E0,5.019206062E-1,-5.854363874E-1,-7.976220201E0,8.013410557E0
3.069036375E0,5.499585160E-1,-3.339197217E-1,-6.435719782E0,6.467800697E0
3.079024375E0,2.516455054E-1,-4.095635426E-1,-4.281637110E0,4.308536190E0
3.089012375E0,-1.394709215E-1,-7.330015455E-1,-1.767121541E0,1.918192364E0
3.099000375E0,-4.215322083E-1,-7.713490476E-1,3.689242244E-1,9.532963019E-1
3.108988375E0,-5.501501220E-1,-1.772526415E-1,1.709103128E0,1.804194324E0
3.118976375E0,-8.619961660E-1,1.224684554E0,2.163408980E0,2.631202779E0
3.128964375E0,-1.348064898E0,3.255229154E0,2.860902286E0,4.538563396E0
3.138951375E0,-1.500695060E0,4.772054781E0,5.483582574E0,7.422551471E0
3.148939375E0,-1.116107972E0,4.852533811E0,9.942378623E0,1.111951771E1
3.158927375E0,1.838751248E-1,4.238859465E0,1.597403651E1,1.652790313E1
3.168915375E0,2.235442292E0,3.725809269E0,2.285118073E1,2.326059581E1
3.178903375E0,3.361515454E0,3.254234542E0,2.735231354E1,2.774957449E1
3.188891375E0,2.934960488E0,3.048578027E0,2.850698660E1,2.881937033E1
3.198879375E0,2.403969280E0,3.015900278E0,2.796393464E1,2.822864437E1
3.208866375E0,2.473301762E0,2.709725448E0,2.649546957E1,2.674826614E1
3.218854375E0,2.242962688E0,2.406711770E0,2.423261583E1,2.445491388E1
3.228842375E0,1.595955851E0,2.310497298E0,2.126679578E1,2.145138867E1
3.238830375E0,1.083887110E0,2.506743450E0,1.836929227E1,1.857120008E1
3.248818375E0,3.243036101E-1,2.494518676E0,1.569429869E1,1.589461568E1
3.258806375E0,-4.023595171E-1,2.192322731E0,1.299969473E1,1.318939859E1
3.268793375E0,-6.372009104E-1,2.097878065E0,1.069467437E1,1.091710480E1
3.278781375E0,-4.981616140E-1,2.019705616E0,8.162851630E0,8.423747533E0
3.288769375E0,-1.468172993E-1,1.715455397E0,5.315369289E0,5.587261692E0
3.298757375E0,1.951988061E-1,1.205684173E0,2.470145143E0,2.755611352E0
3.308745375E0,3.273999666E-1,6.228828335E-1,-2.111102128E-1,7.346708680E-1
3.318733375E0,4.565258937E-1,-1.097946301E-2,-2.612140682E0,2.651757037E0
3.328721375E0,7.394808452E-1,-5.511132315E-1,-5.024246947E0,5.108190981E0
3.338708375E0,9.697715333E-1,-1.108231261E0,-7.231274402E0,7.379699372E0
3.348696375E0,9.248790966E-1,-1.700458605E0,-9.066227737E0,9.270568817E0
3.358684375E0,6.935815179E-1,-2.272806000E0,-1.062771206E1,1.089013159E1
3.368672375E0,6.068310571E-1,-2.786540321E0,-1.206679603E1,1.239921842E1
3.378660375E0,5.712798763E-1,-3.243931748E0,-1.295920744E1,1.337125691E1
3.388648375E0,2.969250461E-1,-3.625276628E0,-1.347555050E1,1.395783852E1
3.398636375E0,-5.251143180E-2,-3.867711545E0,-1.386858045E1,1.439789824E1
3.408623375E0,-2.784762402E-1,-4.021564945E0,-1.398051487E1,1.455009724E1
3.418611375E0,-4.193096817E-1,-4.056896161E0,-1.387767170E1,1.446457739E1
3.428599375E0,-4.040866750E-1,-4.001461340E0,-1.374385700E1,1.432021593E1
3.438587375E0,-1.490251348E-1,-3.714522096E0,-1.360088556E1,1.409978620E1
3.448575375E0,2.240552904E-1,-3.330908204E0,-1.338909473E1,1.379902200E1
3.458563375E0,5.827836518E-1,-3.059156225E0,-1.305421300E1,1.342052721E1
3.468551375E0,8.336334425E-1,-2.865623912E0,-1.272549891E1,1.307077150E1
3.478538375E0,1.177852596E0,-2.708756857E0,-1.238025123E1,1.272773825E1
3.488526375E0,1.510417079E0,-2.598116427E0,-1.185903043E1,1.223389437E1
3.498514375E0,1.719964478E0,-2.519499736E0,-1.120121866E1,1.160919706E1
3.508502375E0,1.830665865E0,-2.527957149E0,-1.035682693E1,1.081692049E1
3.518490375E0,1.838544549E0,-2.620725856E0,-9.321184466E0,9.855603986E0
3.528478375E0,1.774269616E0,-2.631637345E0,-8.383668805E0,8.964343279E0
3.538466375E0,1.799714652E0,-2.504231779E0,-7.560684312E0,8.165420803E0
3.548453375E0,1.753210430E0,-2.353835545E0,-6.449550201E0,7.085971096E0
3.558441375E0,1.530524485E0,-2.288306384E0,-5.403188036E0,6.064098635E0
3.568429375E0,1.130059648E0,-2.352545649E0,-4.944498526E0,5.591025981E0
3.578417375E0,6.324835230E-1,-2.421341065E0,-4.782321907E0,5.397548590E0
3.588405375E0,2.098338387E-1,-2.383701368E0,-4.434134248E0,5.038611811E0
3.598393375E0,-3.690555675E-1,-2.274262249E0,-3.851108961E0,4.487706654E0
3.608380375E0,-1.090664617E0,-2.106046625E0,-3.155322458E0,3.947282800E0
3.618368375E0,-1.705340591E0,-1.987808324E0,-2.216495267E0,3.431095995E0
3.628356375E0,-1.966932887E0,-1.583244150E0,-1.356606656E0,2.866333658E0
3.638344375E0,-1.942115403E0,-3.002004370E-1,-9.927086985E-1,2.201681880E0
3.648331875E0,-2.131896581E0,1.614513598E0,-5.138585740E-1,2.723176055E0
3.658319875E0,-2.111091895E0,3.738592159E0,9.330635905E-1,4.393675908E0
3.668307875E0,-1.675087975E0,5.041687437E0,4.004702452E0,6.652982313E0
3.678294875E0,-4.047767926E-1,5.140843935E0,8.730617439E0,1.013981269E1
3.688282875E0,1.192647513E0,4.882092363E0,1.529314228E1,1.609774626E1
3.698270875E0,2.826618891E0,4.689623366E0,2.186660550E1,2.254175632E1
3.708258875E0,4.227870208E0,4.192162139E0,2.621007400E1,2.687781778E1
3.718246875E0,4.825515874E0,3.670258381E0,2.824810464E1,2.889137961E1
3.728234875E0,4.807593573E0,3.652177328E0,2.871273141E1,2.934062542E1
3.738222875E0,4.294913798E0,3.704457284E0,2.790362411E1,2.847422566E1
3.748209875E0,3.135666750E0,3.586693776E0,2.489455572E1,2.534631498E1
3.758197875E0,1.348187689E0,3.266949313E0,1.999787748E1,2.030777367E1
3.768185875E0,-3.852761822E-1,3.082610869E0,1.496068831E1,1.527982729E1
3.778173875E0,-1.313881636E0,3.085632125E0,1.119345824E1,1.168507244E1
3.788161875E0,-1.239875474E0,3.139239106E0,8.863943312E0,9.484809138E0
3.798149875E0,-2.535617659E-1,3.227215728E0,7.189727595E0,7.884884135E0
3.808136875E0,9.323367816E-1,3.319559636E0,5.354999962E0,6.369046447E0
3.818124875E0,1.715796875E0,3.144460962E0,2.990980030E0,4.666642818E0
3.828112875E0,1.994043940E0,2.523289024E0,5.848852873E-1,3.268836113E0
3.838100875E0,1.946476110E0,1.708541796E0,-1.653097912E0,3.072558709E0
3.848088875E0,1.846985151E0,9.523075081E-1,-3.687955856E0,4.233114945E0
3.858076875E0,1.538592911E0,2.907924132E-1,-5.825649952E0,6.032414586E0
3.868064875E0,9.262357237E-1,-5.975567883E-1,-7.852221222E0,7.929209598E0
3.878051875E0,2.423758048E-1,-1.638477388E0,-9.395399081E0,9.540276625E0
3.888039875E0,-4.541386948E-1,-2.460411867E0,-1.038794815E1,1.068500516E1
3.898027875E0,-1.077878218E0,-3.047274975E0,-1.116296033E1,1.162150548E1
3.908015875E0,-1.424129279E0,-3.339271184E0,-1.182008095E1,1.236499858E1
3.918003875E0,-1.479948116E0,-3.439821659E0,-1.213808528E1,1.270258768E1
3.927991875E0,-1.365081903E0,-3.482936688E0,-1.209476443E1,1.266007991E1
3.937979875E0,-1.107468273E0,-3.500033947E0,-1.198007948E1,1.252992530E1
3.947966875E0,-5.405058707E-1,-3.369939246E0,-1.188463187E1,1.236499543E1
3.957954875E0,1.900926154E-2,-3.022402967E0,-1.189238528E1,1.227045675E1
3.967942875E0,4.988484791E-1,-2.649296814E0,-1.196873822E1,1.226859071E1
3.977930875E0,8.894511093E-1,-2.320492236E0,-1.205330417E1,1.230682529E1
3.987918875E0,1.179612243E0,-2.034194285E0,-1.212423206E1,1.235015929E1
3.997906875E0,1.453677307E0,-1.825883719E0,-1.209039305E1,1.231359547E1
4.007894875E0,1.509384461E0,-1.699446159E0,-1.186961856E1,1.208528872E1
4.017881875E0,1.469505281E0,-1.591834880E0,-1.131524405E1,1.152076959E1
4.027869875E0,1.348173948E0,-1.529752506E0,-1.030709987E1,1.050685602E1
4.037857875E0,1.161233640E0,-1.526497069E0,-9.226621540E0,9.423863428E0
4.047845875E0,9.776862513E-1,-1.592549848E0,-8.213655748E0,8.423551874E0
4.057833875E0,6.985731398E-1,-1.711267183E0,-7.072052965E0,7.309608262E0
4.067821875E0,3.656653518E-1,-1.832277211E0,-5.964821870E0,6.250604041E0
4.077809875E0,1.590369567E-1,-1.860641031E0,-5.398033715E0,5.711921375E0
4.087796875E0,1.513650443E-1,-1.792931736E0,-5.219042843E0,5.520500320E0
4.097784875E0,1.322304697E-1,-1.521560703E0,-4.951391809E0,5.181593646E0
4.107772875E0,-6.492448591E-2,-1.183779626E0,-4.563071201E0,4.714569776E0
4.117760875E0,-3.149503309E-1,-7.273636602E-1,-4.287358026E0,4.360010372E0
4.127748875E0,-8.717683252E-1,-1.812421967E-1,-4.074087852E0,4.170254257E0
4.137736875E0,-1.611909686E0,3.559255716E-1,-3.726300727E0,4.075567808E0
4.147724875E0,-2.325850771E0,9.605023809E-1,-3.009389403E0,3.922826942E0
4.157711875E0,-2.997660181E0,1.724300042E0,-1.247744949E0,3.676417367E0
4.167699875E0,-2.917396329E0,2.927487454E0,8.883329755E-1,4.227353736E0
4.177687875E0,-1.294066153E0,4.213725793E0,3.726075609E0,5.771804893E0
4.187675875E0,1.261770666E0,4.946817532E0,9.984291465E0,1.121379262E1
4.197663875E0,3.920698721E0,5.274173316E0,1.942622795E1,2.050773305E1
4.207651875E0,5.941279226E0,3.968410538E0,2.792454545E1,2.882407535E1
4.217638875E0,6.389312185E0,1.338784928E0,3.220778762E1,3.286270285E1
4.227626875E0,4.991966808E0,1.216539529E-1,3.196490832E1,3.235258716E1
4.237614875E0,3.105770229E0,2.803394920E-1,2.917616067E1,2.934233717E1
4.247602875E0,2.475528382E0,8.582581142E-1,2.539246719E1,2.552728418E1
4.257590875E0,2.149811865E0,1.565892099E0,2.042219589E1,2.059465450E1
4.267578875E0,9.421535258E-1,2.228069391E0,1.477334820E1,1.497009564E1
4.277566875E0,-6.082848211E-1,2.582163177E0,1.021795322E1,1.055671090E1
4.287553875E0,-1.307352635E0,2.906532495E0,7.888611953E0,8.508072673E0
4.297541875E0,-6.536589953E-1,3.318484333E0,7.341469858E0,8.083117470E0
4.307529875E0,6.304167516E-1,3.537548805E0,7.260833246E0,8.101319415E0
4.317517875E0,1.746416258E0,3.387533810E0,6.405439975E0,7.453523753E0
4.327505875E0,2.261828437E0,3.013903454E0,4.842881520E0,6.136202679E0
4.337493875E0,2.180249546E0,2.597396343E0,2.981824459E0,4.515665283E0
4.347481875E0,1.741263984E0,1.955399985E0,9.984559268E-1,2.802231896E0
4.357468875E0,1.157293786E0,1.031566955E0,-1.001124596E0,1.845456514E0
4.367456875E0,6.193680722E-1,1.726770490E-2,-3.022301225E0,3.085161208E0
4.377444875E0,2.453239527E-2,-9.304944701E-1,-4.774203633E0,4.864097257E0
4.387432875E0,-5.920988145E-1,-1.675544788E0,-6.439519302E0,6.680227555E0
4.397420875E0,-1.076500176E0,-2.269285099E0,-8.008962854E0,8.393568579E0
4.407408875E0,-1.399549193E0,-2.644146586E0,-9.212336208E0,9.685937617E0
4.417396875E0,-1.505916916E0,-2.773262463E0,-1.004532821E1,1.052935845E1
4.427383875E0,-1.313016979E0,-2.829551269E0,-1.066960970E1,1.111624690E1
4.437371875E0,-1.099312430E0,-2.864805010E0,-1.114116074E1,1.155599664E1
4.447359875E0,-8.995321476E-1,-2.844607850E0,-1.141663944E1,1.180002577E1
4.457347875E0,-6.029283330E-1,-2.720106595E0,-1.163867343E1,1.196750691E1
4.467335875E0,-2.973133012E-1,-2.473951095E0,-1.203873057E1,1.229389535E1
4.477323875E0,3.239814285E-3,-2.100750071E0,-1.250872742E1,1.268390409E1
4.487311875E0,3.849009372E-1,-1.764447171E0,-1.282552956E1,1.295205123E1
4.497298875E0,5.837319240E-1,-1.576236847E0,-1.287431522E1,1.298357647E1
4.507286875E0,5.271862788E-1,-1.440933592E0,-1.276205570E1,1.285395973E1
4.517274875E0,4.726117666E-1,-1.237053608E0,-1.244653527E1,1.251678488E1
4.527262875E0,4.274076002E-1,-1.073664569E0,-1.191872582E1,1.197461724E1
4.537250875E0,2.842888841E-1,-8.675446621E-1,-1.116635172E1,1.120360944E1
4.547238875E0,1.669784258E-1,-6.583345020E-1,-1.036390791E1,1.038613851E1
4.557226875E0,1.447284637E-1,-5.284921083E-1,-9.530397842E0,9.546137086E0
4.567213875E0,1.217491529E-1,-4.261981402E-1,-8.400305888E0,8.411991840E0
4.577201875E0,-2.062688918E-2,-3.753557231E-1,-7.131082946E0,7.140984622E0
4.587189875E0,-2.302763990E-1,-4.363914451E-1,-6.144310926E0,6.164091293E0
4.597177875E0,-2.946784727E-1,-6.122967419E-1,-5.673099019E0,5.713649900E0
4.607165875E0,-4.695197225E-1,-7.669130574E-1,-5.520866175E0,5.593618482E0
4.617153875E0,-7.129667920E-1,-7.539746310E-1,-5.266084862E0,5.367350293E0
4.627140875E0,-7.574509469E-1,-6.317615381E-1,-4.841980464E0,4.941419775E0
4.637128875E0,-6.181699777E-1,-4.577096625E-1,-4.294498061E0,4.362836904E0
4.647117833E0,-6.757426132E-1,-1.388298565E-1,-3.644535602E0,3.709250809E0
4.657105833E0,-9.577506081E-1,3.652409171E-1,-2.617482113E0,2.811031798E0
4.667093833E0,-1.509854139E0,1.037737522E0,-8.647944242E-1,2.025938814E0
4.677081833E0,-2.280894161E0,2.033447011E0,1.528455740E0,3.416659460E0
4.687069833E0,-2.738560700E0,3.168755558E0,4.329971949E0,6.024067029E0
4.697056833E0,-2.685266253E0,4.008083897E0,7.561059703E0,8.969114516E0
4.707044833E0,-1.526704499E0,4.654389507E0,1.074901372E1,1.181251303E1
4.717032833E0,5.077542636E-1,4.982240549E0,1.450408859E1,1.534435144E1
4.727020833E0,2.193593916E0,4.713828793E0,1.910635017E1,1.980112757E1
4.737008833E0,2.918702012E0,4.293302013E0,2.383202308E1,2.439091199E1
4.746996833E0,2.892909652E0,3.229535903E0,2.821815286E1,2.854930786E1
4.756984833E0,2.698297650E0,2.047734829E0,3.053504891E1,3.072235734E1
4.766971833E0,2.566209341E0,2.035091833E0,2.922809564E1,2.941102861E1
4.776959833E0,2.419331377E0,2.797703240E0,2.466921573E1,2.494494964E1
4.786947833E0,1.789092746E0,3.201482132E0,1.971652584E1,2.005471844E1
4.796935833E0,5.547415384E-1,3.052659676E0,1.546132925E1,1.576956472E1
4.806923833E0,-6.499684520E-1,2.931508584E0,1.219705796E1,1.256122703E1
4.816911833E0,-1.229048039E0,2.892066191E0,1.051257804E1,1.097218771E1
4.826899833E0,-1.054287919E0,2.643665360E0,9.943672028E0,1.034297360E1
4.836886833E0,-5.457963583E-1,2.229186940E0,9.215688416E0,9.497161737E0
4.846874833E0,-1.506495461E-1,1.793686319E0,7.619528351E0,7.829254000E0
4.856862833E0,1.082406777E-1,1.094521879E0,5.347533653E0,5.459469787E0
4.866850833E0,3.522689057E-1,3.786519447E-1,2.883640938E0,2.929651129E0
4.876838833E0,5.892603202E-1,-1.729036286E-1,3.210080463E-1,6.929426784E-1
4.886826833E0,9.579390346E-1,-6.936212790E-1,-2.251371569E0,2.543114550E0
4.896814833E0,1.355243963E0,-1.176177369E0,-4.471602037E0,4.818226248E0
4.906801833E0,1.306946838E0,-1.832859740E0,-6.313791302E0,6.703092232E0
4.916789833E0,8.963117205E-1,-2.683725512E0,-7.822880479E0,8.318847054E0
4.926777833E0,4.716844348E-1,-3.634552651E0,-8.997225330E0,9.715066794E0
4.936765833E0,7.049510999E-2,-4.540863476E0,-1.001906603E1,1.100027703E1
4.946753833E0,-7.406722885E-2,-5.243357320E0,-1.096123022E1,1.215100201E1
4.956741833E0,-2.768839337E-3,-5.512973603E0,-1.194892318E1,1.315939401E1
4.966729833E0,1.603361715E-1,-5.350863642E0,-1.299845629E1,1.405764259E1
4.976716833E0,3.666168765E-1,-5.001241661E0,-1.365478520E1,1.454647672E1
4.986704833E0,5.877151935E-1,-4.679293967E0,-1.384167040E1,1.462303117E1
4.996692833E0,8.890519638E-1,-4.460553723E0,-1.390287671E1,1.462795043E1
5.006680833E0,1.255529786E0,-4.230042449E0,-1.378055881E1,1.446974136E1
5.016668833E0,1.500481783E0,-3.944691308E0,-1.350312947E1,1.414731567E1
5.026656833E0,1.597129826E0,-3.616693500E0,-1.335741452E1,1.393024832E1
5.036643833E0,1.736328203E0,-3.375738514E0,-1.325461228E1,1.378750133E1
5.046631833E0,1.825351330E0,-3.229665712E0,-1.301207446E1,1.353058497E1
5.056619833E0,1.752737390E0,-3.172531106E0,-1.266491240E1,1.317334612E1
5.066607833E0,1.636538159E0,-3.164261096E0,-1.209836047E1,1.261194400E1
5.076595833E0,1.473048694E0,-3.140455912E0,-1.132542873E1,1.184473181E1
5.086583833E0,1.279133680E0,-3.018743779E0,-1.062173737E1,1.111621796E1
5.096571833E0,1.293932691E0,-2.794846290E0,-9.945581728E0,1.041153320E1
5.106558833E0,1.519427346E0,-2.409443735E0,-9.148289900E0,9.581507537E0
5.116546833E0,1.522331074E0,-2.030959606E0,-8.592921358E0,8.959943430E0
5.126534833E0,1.319435906E0,-1.862030329E0,-8.144812385E0,8.458489040E0
5.136522833E0,1.015755280E0,-1.737298987E0,-7.410175812E0,7.678585294E0
5.146510833E0,7.840765357E-1,-1.610456800E0,-6.674885520E0,6.911037825E0
5.156498833E0,6.411526050E-1,-1.563014831E0,-6.016003718E0,6.248711288E0
5.166486833E0,4.810393220E-1,-1.390268784E0,-5.163173282E0,5.368668779E0
5.176473833E0,4.266771734E-1,-9.770595029E-1,-3.763093162E0,3.911210660E0
5.186461833E0,4.494442211E-1,-5.826563287E-1,-1.899431167E0,2.036989756E0
5.196449833E0,3.016536528E-1,-1.838820684E-1,-8.320231193E-1,9.039192511E-1
5.206437833E0,-3.171588242E-2,4.236749205E-1,-5.645703059E-1,7.065733973E-1
5.216425833E0,-6.365588131E-1,1.296513944E0,-6.411968976E-1,1.580281301E0
5.226413833E0,-1.883339191E0,2.453361880E0,2.364339191E-1,3.101911027E0
5.236401833E0,-2.905689911E0,3.953791330E0,2.301792694E0,5.419755469E0
5.246388833E0,-2.563878641E0,4.806761515E0,5.401018134E0,7.671338008E0
5.256376833E0,-2.077590273E0,4.314826491E0,1.106325010E1,1.205527320E1
5.266364833E0,-5.721959522E-1,2.923155252E0,2.010514114E1,2.032458967E1
5.276352833E0,1.449785254E0,1.382319787E0,2.928255661E1,2.935099329E1
5.286340833E0,3.185259032E0,1.252911403E0,3.357065899E1,3.374470043E1
5.296328833E0,3.667131290E0,2.652216036E0,3.277622118E1,3.308719959E1
5.306316833E0,3.274079700E0,4.412715313E0,2.856080438E1,2.908455262E1
5.316303833E0,3.451430136E0,5.031106900E0,2.349139704E1,2.427076723E1
5.326291833E0,3.640866475E0,5.438078957E0,1.931214410E1,2.039086857E1
5.336279833E0,3.400998778E0,5.873074379E0,1.587155938E1,1.726169726E1
5.346267833E0,3.311306875E0,5.845153924E0,1.314412797E1,1.476139146E1
5.356255833E0,2.990509914E0,5.419709344E0,1.155716207E1,1.311046887E1
5.366243833E0,2.521713492E0,4.710951085E0,1.088461533E1,1.212546700E1
5.376231833E0,2.243781298E0,3.995988346E0,1.049229288E1,1.144948415E1
5.386218833E0,2.108625540E0,3.242999117E0,9.494702929E0,1.025244989E1
5.396206833E0,1.901687315E0,2.470685133E0,7.540984458E0,8.160094746E0
5.406194833E0,1.760245215E0,1.861990861E0,4.714660851E0,5.365957522E0
5.416182833E0,1.721399677E0,1.410213637E0,1.422063897E0,2.640868243E0
5.426170833E0,1.698906169E0,9.288363460E-1,-1.639898992E0,2.537378142E0
5.436158833E0,1.498187774E0,3.564477280E-1,-4.026342997E0,4.310807293E0
5.446146833E0,1.040699794E0,-2.864372608E-1,-5.895874427E0,5.993866667E0
5.456133833E0,5.768037774E-1,-9.921865422E-1,-7.364848781E0,7.453732910E0
5.466121833E0,2.218732192E-1,-1.650307328E0,-8.495274026E0,8.656929177E0
5.476109833E0,-3.036163073E-2,-2.243448007E0,-9.311465224E0,9.577962487E0
5.486097833E0,-3.354600610E-1,-2.783481057E0,-9.888118801E0,1.027789831E1
5.496085833E0,-6.813975285E-1,-3.081245252E0,-1.045488006E1,1.092075510E1
5.506073833E0,-8.407929195E-1,-3.178306985E0,-1.085047928E1,1.133761301E1
5.516060833E0,-8.661526593E-1,-3.141561036E0,-1.108272250E1,1.155189873E1
5.526048833E0,-7.087722918E-1,-3.032089756E0,-1.113193618E1,1.155923568E1
5.536036833E0,-5.277663226E-1,-2.919218906E0,-1.117548156E1,1.156251549E1
5.546024833E0,-5.040270656E-1,-2.790472865E0,-1.140066602E1,1.174801974E1
5.556012833E0,-4.120573435E-1,-2.581850935E0,-1.163899268E1,1.192903585E1
5.566000833E0,-2.585278975E-1,-2.338655296E0,-1.184551517E1,1.207693566E1
5.575988833E0,-1.414683943E-1,-2.127129638E0,-1.213715207E1,1.232295233E1
5.585975833E0,5.349593846E-2,-1.863879658E0,-1.237059397E1,1.251033590E1
5.595963833E0,2.683549839E-1,-1.712957759E0,-1.248999411E1,1.260976572E1
5.605951833E0,4.556823232E-1,-1.632196016E0,-1.246328637E1,1.257796555E1
5.615939833E0,5.237050294E-1,-1.557097595E0,-1.222261146E1,1.233252005E1
5.625927833E0,5.130302794E-1,-1.492126112E0,-1.177941006E1,1.188461786E1
5.635915833E0,4.651494038E-1,-1.513548556E0,-1.116563251E1,1.127734643E1
5.645903708E0,4.618570194E-1,-1.560864517E0,-1.038242838E1,1.050925445E1
5.655890708E0,4.671377861E-1,-1.577417985E0,-9.601709315E0,9.741626505E0
5.665878708E0,2.470442766E-1,-1.624331804E0,-9.189621529E0,9.335342979E0
5.675866708E0,-2.135173607E-2,-1.682883629E0,-8.961573687E0,9.118243040E0
5.685854708E0,-1.541930319E-1,-1.733201258E0,-8.822784761E0,8.992735570E0
5.695842708E0,-4.574265110E-1,-1.706461795E0,-8.992186199E0,9.164096437E0
5.705830708E0,-6.912304987E-1,-1.655552281E0,-9.192289613E0,9.365726950E0
5.715818708E0,-4.602367194E-1,-1.452131888E0,-8.898285179E0,9.027734155E0
5.725805708E0,-1.046051166E-1,-1.238270121E0,-8.011905758E0,8.107705532E0
5.735793708E0,-2.114503198E-1,-1.074633598E0,-6.862708027E0,6.949554667E0
5.745781708E0,-4.559819199E-1,-7.968779911E-1,-5.527416226E0,5.603147702E0
5.755769708E0,-5.768557446E-1,-4.780753684E-1,-3.953383779E0,4.023749733E0
5.765757708E0,-8.523228248E-1,-1.780035701E-1,-2.679832728E0,2.817737198E0
5.775745708E0,-1.186542728E0,8.035536110E-2,-1.337586249E0,1.789826137E0
5.785733708E0,-1.700604931E0,3.229285643E-1,3.768553877E-1,1.771541694E0
5.795720708E0,-2.585838152E0,9.722254635E-1,2.608123645E0,3.799222321E0
5.805708708E0,-3.612401936E0,2.066025504E0,5.808704136E0,7.145554763E0
5.815696708E0,-3.255807736E0,3.109191434E0,9.454284051E0,1.047142981E1
5.825684708E0,-1.918338431E0,3.520090481E0,1.372372621E1,1.429726269E1
5.835672708E0,1.246381525E-1,3.673416170E0,2.021834324E1,2.054971835E1
5.845660708E0,2.788406167E0,3.454794624E0,2.862666741E1,2.896889542E1
5.855648708E0,4.489769921E0,1.926610195E0,3.600522675E1,3.633519250E1
5.865635708E0,4.645826552E0,1.488977386E-1,3.937709148E1,3.965048812E1
5.875623708E0,3.407851422E0,-2.387266123E-1,3.788568896E1,3.803939891E1
5.885611708E0,2.099355949E0,3.602989966E-1,3.308417532E1,3.315267361E1
5.895599708E0,1.457372893E0,7.520690234E-1,2.731006624E1,2.735926281E1
5.905587708E0,5.398417731E-1,1.410674690E0,2.118544464E1,2.123922072E1
5.915575708E0,-8.176684242E-1,2.363145189E0,1.574753291E1,1.594483709E1
5.925563708E0,-1.498054165E0,3.268452047E0,1.237673354E1,1.288838540E1
5.935550708E0,-1.019320254E0,3.972812030E0,1.166592730E1,1.236592532E1
5.945538708E0,3.898397879E-1,4.479846319E0,1.265916342E1,1.343411391E1
5.955526708E0,1.776749859E0,4.937302358E0,1.337097187E1,1.436372805E1
5.965514708E0,2.685336127E0,5.110949460E0,1.332421286E1,1.452127690E1
5.975502708E0,3.182661114E0,5.014836438E0,1.223538295E1,1.360082763E1
5.985490708E0,3.309972541E0,4.644293119E0,9.877254674E0,1.140550467E1
5.995478708E0,3.304161578E0,3.900271765E0,6.753345798E0,8.469786482E0
6.005465708E0,3.102788149E0,2.955416095E0,3.456996101E0,5.505688025E0
6.015453708E0,3.043076967E0,1.908151412E0,8.700130641E-2,3.592899730E0
6.025441708E0,2.959231403E0,8.273631808E-1,-3.033840705E0,4.318074774E0
6.035429708E0,2.533096266E0,-3.274566481E-1,-5.905438718E0,6.434128612E0
6.045417708E0,2.155393617E0,-1.486427415E0,-8.344870775E0,8.745973723E0
6.055405708E0,1.920848056E0,-2.480654343E0,-1.036657541E1,1.083093666E1
6.065393708E0,1.740874413E0,-3.351116474E0,-1.214078436E1,1.271452988E1
6.075380708E0,1.538009651E0,-3.996225743E0,-1.379434186E1,1.444365471E1
6.085368708E0,1.317977757E0,-4.420814876E0,-1.519765725E1,1.588236303E1
6.095356708E0,9.242003810E-1,-4.711678771E0,-1.626117222E1,1.695522884E1
6.105344708E0,4.084725618E-1,-4.738777400E0,-1.721928996E1,1.786412068E1
6.115332708E0,8.406494435E-2,-4.713831424E0,-1.795610930E1,1.856472824E1
6.125320708E0,3.942719042E-2,-4.764805111E0,-1.828225295E1,1.889300652E1
6.135308708E0,1.346533000E-1,-4.883357408E0,-1.827184023E1,1.891363150E1
6.145295708E0,3.836735700E-1,-4.928587083E0,-1.778221427E1,1.845657933E1
6.155283708E0,6.233438133E-1,-4.842019640E0,-1.684679425E1,1.753990275E1
6.165271708E0,7.821535327E-1,-4.788741273E0,-1.559750272E1,1.633480634E1
6.175259708E0,9.112224859E-1,-4.884728288E0,-1.417458630E1,1.502031270E1
6.185247708E0,9.019554531E-1,-4.956981162E0,-1.282861339E1,1.378254357E1
6.195235708E0,8.633492848E-1,-4.959780225E0,-1.139141339E1,1.245428002E1
6.205223708E0,6.997922842E-1,-4.918715814E0,-9.911739213E0,1.108720202E1
6.215210708E0,4.372630822E-1,-4.878298690E0,-8.522989243E0,9.830073385E0
6.225198708E0,3.983461345E-2,-4.807669879E0,-7.289941855E0,8.732612938E0
6.235186708E0,-4.001070600E-1,-4.635309165E0,-6.354613053E0,7.875740205E0
6.245174708E0,-7.401075205E-1,-4.433454802E0,-5.749267189E0,7.297763619E0
6.255162708E0,-9.364630886E-1,-4.249777386E0,-5.485460114E0,7.001988547E0
6.265150708E0,-1.005598008E0,-3.986746237E0,-5.382321662E0,6.773090830E0
6.275138708E0,-1.258559082E0,-3.676087178E0,-5.544305908E0,6.770296589E0
6.285125708E0,-1.397285882E0,-3.414863988E0,-5.916904523E0,6.973052633E0
6.295113708E0,-1.242333936E0,-3.199545242E0,-6.312345285E0,7.185136489E0
6.305101708E0,-1.256867922E0,-2.983699661E0,-6.675682495E0,7.419360985E0
6.315089708E0,-1.221454114E0,-2.721707563E0,-6.980829969E0,7.591549859E0
6.325077708E0,-9.466837292E-1,-2.445587860E0,-6.971829935E0,7.448726247E0
6.335065708E0,-6.818791929E-1,-2.195901812E0,-6.722828010E0,7.105164351E0
6.345053708E0,-4.174984701E-1,-1.944501067E0,-6.471081988E0,6.769807343E0
6.355040708E0,-1.630290701E-1,-1.755612613E0,-6.336866169E0,6.577585193E0
6.365028708E0,1.325631762E-1,-1.650237454E0,-6.134741957E0,6.354204555E0
6.375016708E0,4.111176594E-1,-1.636258077E0,-5.728050567E0,5.971341685E0
6.385004708E0,5.596911334E-1,-1.584613568E0,-5.361719583E0,5.618922602E0
6.394992708E0,7.335836358E-1,-1.495933526E0,-5.444144858E0,5.693388736E0
6.404980708E0,9.190826055E-1,-1.368739775E0,-5.540747877E0,5.780834581E0
6.414968708E0,1.016976836E0,-1.163214384E0,-5.306652260E0,5.527012556E0
6.424955708E0,8.809208988E-1,-8.062021074E-1,-5.031651276E0,5.171411609E0
6.434943708E0,6.840515797E-1,-2.562241128E-1,-4.689913681E0,4.746458437E0
6.444931708E0,4.681391218E-1,4.889032423E-1,-3.564679009E0,3.628376642E0
6.454919708E0,9.082918614E-4,1.210105838E0,-1.944876312E0,2.290611454E0
6.464907708E0,-8.018235661E-1,1.937469644E0,-9.421910942E-2,2.098948997E0
6.474895708E0,-1.265591236E0,3.203718984E0,2.489857861E0,4.250285717E0
6.484883708E0,-6.213719860E-1,5.098995413E0,5.436835254E0,7.479641364E0
6.494870708E0,1.558639359E0,6.458815699E0,9.491182905E0,1.158568987E1
6.504858708E0,4.225057697E0,6.911000766E0,1.745502864E1,1.924294855E1
6.514846708E0,5.856900396E0,6.588677096E0,2.801208061E1,2.936648784E1
6.524834708E0,5.495238998E0,5.113022298E0,3.516236230E1,3.595458763E1
6.534822708E0,3.309445999E0,3.459169511E0,3.656881180E1,3.688083896E1
6.544810708E0,5.649421158E-1,2.681138119E0,3.475463596E1,3.486247813E1
6.554798708E0,-5.405023258E-1,2.836995360E0,3.223432229E1,3.236343954E1
6.564785708E0,-7.887106734E-1,3.243306681E0,2.915281157E1,2.934327053E1
6.574773708E0,-1.321667642E0,3.458099470E0,2.533329570E1,2.560236568E1
6.584761708E0,-2.214688623E0,3.480224749E0,2.168984184E1,2.207863331E1
6.594749708E0,-2.760446244E0,3.159850541E0,1.857283852E1,1.904087838E1
6.604737708E0,-2.136243547E0,3.083104082E0,1.615639245E1,1.658608104E1
6.614725708E0,-8.049944381E-1,3.689974023E0,1.416753689E1,1.466229948E1
6.624713708E0,5.562464656E-1,4.531288660E0,1.207098732E1,1.290545318E1
6.634700708E0,1.907183698E0,5.195310749E0,9.568814633E0,1.105399552E1
6.644688708E0,3.364727330E0,5.809816861E0,6.715219613E0,9.495764130E0
6.654676333E0,4.125284025E0,6.099397877E0,4.221583282E0,8.487778753E0
6.664664333E0,3.607290008E0,5.372411216E0,2.643004040E0,6.990051061E0
6.674652333E0,2.625524958E0,3.708157694E0,1.599718096E0,4.816940188E0
6.684640333E0,1.518556988E0,1.707372060E0,5.731598657E-1,2.355768857E0
6.694628333E0,2.287753456E-1,-8.461213410E-3,-3.342402953E-1,4.051250744E-1
6.704615333E0,-6.916661163E-1,-1.299122387E0,-1.500744615E0,2.101988438E0
6.714603333E0,-1.415563839E0,-2.201441902E0,-2.780875538E0,3.818826546E0
6.724591333E0,-1.845362403E0,-2.548446085E0,-3.687667004E0,4.847558950E0
6.734579333E0,-1.703889458E0,-2.682413689E0,-4.196880550E0,5.264255772E0
6.744567333E0,-1.314559913E0,-2.820902945E0,-4.393452246E0,5.384049018E0
6.754555333E0,-7.342902718E-1,-2.852538136E0,-4.768724792E0,5.605077356E0
6.764543333E0,-1.211136519E-1,-2.965725905E0,-5.201707603E0,5.988986613E0
6.774530333E0,3.105913047E-2,-3.043144210E0,-5.830573307E0,6.577026413E0
6.784518333E0,1.503165655E-2,-3.107662387E0,-6.928320803E0,7.593380052E0
6.794506333E0,-1.025121788E-1,-3.103099220E0,-8.053769483E0,8.631508350E0
6.804494333E0,-2.464627345E-1,-3.128148985E0,-9.261293190E0,9.778425819E0
6.814482333E0,-2.028277049E-1,-3.252963358E0,-1.058763173E1,1.107794455E1
6.824470333E0,-1.183619705E-1,-3.244361519E0,-1.184945503E1,1.228614975E1
6.834458333E0,6.119454704E-2,-3.103721949E0,-1.272350384E1,1.309673183E1
6.844445333E0,2.524234957E-1,-3.045861411E0,-1.317036911E1,1.352034067E1
6.854433333E0,4.093421524E-1,-2.999494160E0,-1.312827851E1,1.347279566E1
6.864421333E0,6.751711209E-1,-2.899220844E0,-1.257402796E1,1.292159110E1
6.874409333E0,8.433352158E-1,-2.833267175E0,-1.195967036E1,1.231959140E1
6.884397333E0,8.616038910E-1,-2.793097973E0,-1.171656185E1,1.207566061E1
6.894385333E0,8.635051862E-1,-2.681230505E0,-1.151778692E1,1.185723635E1
6.904373333E0,7.388176247E-1,-2.557012548E0,-1.119209584E1,1.150422418E1
6.914361333E0,5.935665753E-1,-2.475464939E0,-1.071751594E1,1.101568862E1
6.924348333E0,6.337761232E-1,-2.473676276E0,-1.032740959E1,1.063842729E1
6.934336333E0,8.253494728E-1,-2.392790134E0,-1.007478064E1,1.038787039E1
6.944324333E0,8.317537820E-1,-2.229604139E0,-9.970037123E0,1.025010191E1
6.954312333E0,5.998724319E-1,-2.154566675E0,-9.951087466E0,1.019932087E1
6.964300333E0,5.352806526E-1,-2.081333807E0,-9.794244677E0,1.002724811E1
6.974288333E0,6.055712014E-1,-2.028220039E0,-9.364201262E0,9.600450942E0
6.984276333E0,5.371742734E-1,-2.023664473E0,-8.881818835E0,9.125266019E0
6.994263333E0,4.648147604E-1,-2.035159222E0,-8.332346624E0,8.589873462E0
7.004251333E0,6.860034534E-1,-1.887096612E0,-7.440593612E0,7.706761166E0
7.014239333E0,1.080939674E0,-1.628255578E0,-6.638851469E0,6.920548795E0
7.024227333E0,1.327564706E0,-1.498009288E0,-6.092760703E0,6.413126605E0
7.034215333E0,1.389965022E0,-1.516262102E0,-5.898495149E0,6.246863097E0
7.044203333E0,1.113393549E0,-1.622901721E0,-6.394447210E0,6.690471606E0
7.054191333E0,9.013566251E-1,-1.741895922E0,-7.089408086E0,7.355702018E0
7.064178333E0,9.718016135E-1,-1.714681518E0,-7.571372437E0,7.823695525E0
7.074166333E0,1.296189424E0,-1.463722385E0,-7.862379590E0,8.101827143E0
7.084154333E0,1.682057417E0,-1.157806148E0,-8.047209492E0,8.302253479E0
7.094142333E0,1.900790645E0,-9.134090522E-1,-7.928495227E0,8.204167095E0
7.104130333E0,2.037578361E0,-7.353002322E-1,-7.241972467E0,7.559005042E0
7.114118333E0,2.151921540E0,-6.626555943E-1,-6.428051158E0,6.810999959E0
7.124106333E0,1.904283772E0,-6.758026202E-1,-5.622580830E0,5.974648195E0
7.134093333E0,1.222126690E0,-7.563608797E-1,-4.569659259E0,4.790350840E0
7.144081333E0,5.748588473E-1,-5.985364893E-1,-3.380180644E0,3.480564582E0
7.154069333E0,-4.820605382E-1,-2.209770969E-1,-1.885736988E0,1.958881627E0
7.164057333E0,-1.930108292E0,4.461270592E-1,3.726372063E-2,1.981347005E0
7.174045333E0,-3.464688113E0,1.405218507E0,2.262893507E0,4.370284864E0
7.184033333E0,-3.712088192E0,3.248775874E0,4.147345862E0,6.444735924E0
7.194021333E0,-2.486682530E0,5.551781573E0,5.550664755E0,8.235031747E0
7.204008333E0,-6.500693165E-1,7.053421397E0,8.772275927E0,1.127502410E1
7.213996333E0,1.017672070E0,7.823448243E0,1.625216283E1,1.806584610E1
7.223984333E0,2.205367138E0,7.317855878E0,2.725415750E1,2.830554292E1
7.233972333E0,3.393591233E0,5.426889725E0,3.734662713E1,3.789113553E1
7.243960333E0,3.656915035E0,3.666765254E0,4.331915797E1,4.362760184E1
7.253948333E0,2.616657656E0,3.347506110E0,4.335365187E1,4.356135701E1
7.263936333E0,9.835845570E-1,4.267147125E0,3.798054483E1,3.823215622E1
7.273923333E0,-3.468188256E-2,5.447605825E0,3.048745258E1,3.097034673E1
7.283911333E0,-9.495206521E-1,6.495687071E0,2.272202041E1,2.365133720E1
7.293899333E0,-2.777150569E0,7.209889380E0,1.642390725E1,1.815047656E1
7.303887333E0,-4.771915618E0,7.303893896E0,1.295674459E1,1.562034811E1
7.313875333E0,-6.018984044E0,6.394294598E0,1.238373617E1,1.518130738E1
7.323863333E0,-5.727673422E0,5.448792225E0,1.295475186E1,1.517633603E1
7.333851333E0,-4.356289097E0,5.745777571E0,1.286364873E1,1.474668347E1
7.343838333E0,-2.577171409E0,6.421277159E0,1.135794977E1,1.329953517E1
7.353826333E0,-7.832523707E-1,6.747942971E0,9.114025217E0,1.136721928E1
7.363814333E0,8.244660316E-1,6.503022988E0,7.048627850E0,9.625601632E0
7.373802333E0,1.843546404E0,5.720120573E0,5.157043061E0,7.919187828E0
7.383790333E0,2.022762248E0,4.376792651E0,3.252777416E0,5.816222308E0
7.393778333E0,1.925886164E0,2.589311982E0,1.388990875E0,3.513242051E0
7.403766333E0,1.928689611E0,6.258596510E-1,-6.967407686E-1,2.144059611E0
7.413753333E0,1.613781526E0,-1.137305664E0,-2.953525690E0,3.552614388E0
7.423741333E0,7.993322137E-1,-2.548785808E0,-5.060658728E0,5.722369076E0
7.433729333E0,-2.069983046E-1,-3.620531028E0,-7.053801466E0,7.931406455E0
7.443717333E0,-1.017051315E0,-4.230678041E0,-8.756136442E0,9.777676384E0
7.453705333E0,-1.242887229E0,-4.426398967E0,-1.024710744E1,1.123125048E1
7.463693333E0,-9.469633723E-1,-4.453519230E0,-1.148740011E1,1.235681733E1
7.473681333E0,-1.656033068E-1,-4.251464308E0,-1.229049881E1,1.300610373E1
7.483669333E0,9.007088267E-1,-3.824569618E0,-1.279676711E1,1.338640570E1
7.493656333E0,1.969720693E0,-3.357190854E0,-1.378784678E1,1.432673196E1
7.503644333E0,2.965401385E0,-2.816834745E0,-1.515145138E1,1.569377718E1
7.513632333E0,3.685378988E0,-2.362324825E0,-1.627838759E1,1.685670488E1
7.523620333E0,4.005956095E0,-2.154877893E0,-1.696694167E1,1.756611205E1
7.533608333E0,3.966027213E0,-2.129940395E0,-1.703844493E1,1.762312752E1
7.543596333E0,3.565470429E0,-2.271012366E0,-1.624058066E1,1.678173224E1
7.553584333E0,2.968721726E0,-2.625230551E0,-1.469172223E1,1.521682774E1
7.563571333E0,2.204819985E0,-3.004240930E0,-1.280799610E1,1.333909513E1
7.573559333E0,1.659905241E0,-3.175688017E0,-1.070284410E1,1.128676888E1
7.583547333E0,1.422920660E0,-3.314268198E0,-8.854407088E0,9.560836876E0
7.593535333E0,1.058837199E0,-3.509539180E0,-7.468150370E0,8.319331188E0
7.603523333E0,6.876794846E-1,-3.588228085E0,-6.479365153E0,7.438444505E0
7.613511333E0,4.413403092E-1,-3.589088210E0,-6.009105758E0,7.013250848E0
7.623499333E0,2.172359021E-1,-3.536596586E0,-6.150618317E0,7.098226013E0
7.633486333E0,-6.608932436E-2,-3.275885320E0,-6.781251050E0,7.531345048E0
7.643474333E0,-2.360181820E-1,-2.869055643E0,-7.524556705E0,8.056434601E0
7.653462083E0,-2.600664644E-1,-2.551982773E0,-8.048872440E0,8.447756992E0
7.663450083E0,-2.482538462E-1,-2.395483215E0,-8.262158402E0,8.605999725E0
7.673438083E0,-2.992061911E-1,-2.376842000E0,-8.265787184E0,8.605936323E0
7.683426083E0,-9.457922481E-2,-2.323002007E0,-7.813855301E0,8.152399538E0
7.693414083E0,2.629681452E-1,-2.286190130E0,-7.382861713E0,7.733205327E0
7.703401083E0,5.301371493E-1,-2.231890254E0,-7.278010027E0,7.630976966E0
7.713389083E0,8.443014682E-1,-2.067383812E0,-7.148108284E0,7.488816518E0
7.723377083E0,9.958464606E-1,-2.025057572E0,-7.166802417E0,7.513695844E0
7.733365083E0,1.004456486E0,-2.203997135E0,-7.648090830E0,8.022457825E0
7.743353083E0,1.043675954E0,-2.299967047E0,-8.208944646E0,8.588706545E0
7.753341083E0,1.298558423E0,-2.264771779E0,-8.623056153E0,9.009580601E0
7.763329083E0,1.540989685E0,-2.134906289E0,-8.795182394E0,9.180833700E0
7.773317083E0,1.620065237E0,-2.093335948E0,-8.822332771E0,9.210875218E0
7.783304083E0,1.770851334E0,-2.131714440E0,-8.687838040E0,9.119136511E0
7.793292083E0,1.868052669E0,-2.063181857E0,-8.122033972E0,8.585672716E0
7.803280083E0,1.962124575E0,-2.095357477E0,-7.504734644E0,8.035016981E0
7.813268083E0,2.248807419E0,-1.980200657E0,-6.791225815E0,7.422875287E0
7.823256083E0,2.014720718E0,-1.562036884E0,-5.975092505E0,6.496213454E0
7.833244083E0,1.253091643E0,-8.880268738E-1,-5.201931551E0,5.423921299E0
7.843232083E0,5.052491337E-2,-3.338887314E-1,-3.521862187E0,3.538014658E0
7.853219083E0,-1.467432735E0,5.881361930E-1,-5.774043596E-1,1.683050447E0
7.863207083E0,-2.503758447E0,2.062545095E0,2.279715947E0,3.964845952E0
7.873195083E0,-3.261262018E0,3.957109625E0,4.314127749E0,6.701212186E0
7.883183083E0,-2.890817518E0,6.300795280E0,5.238362628E0,8.688917661E0
7.893171083E0,-1.096509275E0,7.743473536E0,8.398178086E0,1.147576186E1
7.903159083E0,9.913579917E-1,7.610166959E0,1.903451596E1,2.052340687E1
7.913147083E0,3.473239373E0,6.991123992E0,3.345215230E1,3.435091993E1
7.923134083E0,4.791353224E0,5.039137466E0,4.308033897E1,4.363789154E1
7.933122083E0,3.627853496E0,2.645425080E0,4.653217491E1,4.674829298E1
7.943110083E0,6.994339961E-1,2.036431576E0,4.408128874E1,4.413384504E1
7.953098083E0,-1.345016744E0,3.020671314E0,3.855132897E1,3.869287390E1
7.963086083E0,-2.029211727E0,3.589706846E0,3.258677140E1,3.284663401E1
7.973074083E0,-3.078130732E0,3.489084451E0,2.635996854E1,2.676745301E1
7.983062083E0,-4.495851610E0,3.477325115E0,2.136427588E1,2.210739143E1
7.993050083E0,-5.296782745E0,3.110503550E0,1.831780169E1,1.932027428E1
8.003037083E0,-4.805889695E0,2.624837326E0,1.688687809E1,1.775254906E1
8.013025083E0,-3.173865733E0,2.517618979E0,1.552985160E1,1.604955201E1
8.023013083E0,-1.390059162E0,2.978793263E0,1.285462063E1,1.326826083E1
8.033001083E0,1.955653900E-1,3.398049150E0,8.966432723E0,9.590719453E0
8.042989083E0,1.619959694E0,3.740475840E0,4.926887298E0,6.394501338E0
8.052977083E0,2.468814316E0,3.661715599E0,1.341886291E0,4.615610910E0
8.062965083E0,2.617315175E0,2.888700826E0,-1.660523876E0,4.237012005E0
8.072952083E0,2.490553679E0,1.771980869E0,-4.042649127E0,5.068114620E0
8.082940083E0,2.342073871E0,5.912128517E-1,-5.912355389E0,6.386766701E0
8.092928083E0,2.122285805E0,-6.092804557E-1,-7.218894677E0,7.549023782E0
8.102916083E0,1.686521766E0,-1.796264648E0,-7.873303943E0,8.249838624E0
8.112904083E0,1.003119593E0,-2.867008825E0,-8.167863863E0,8.714355318E0
8.122892083E0,3.628182694E-1,-3.646994064E0,-8.313664770E0,9.085660389E0
8.132880083E0,-3.237837195E-2,-3.968857266E0,-8.454774456E0,9.340026095E0
8.142868083E0,-3.373463362E-2,-4.038078359E0,-8.930063041E0,9.800675527E0
8.152855083E0,1.692108927E-1,-4.043164559E0,-9.682993798E0,1.049457864E1
8.162843083E0,3.773321550E-1,-3.880480109E0,-1.049629238E1,1.119699331E1
8.172831083E0,5.136629847E-1,-3.718674204E0,-1.124721403E1,1.185715864E1
8.182819083E0,7.280195716E-1,-3.579060528E0,-1.200988040E1,1.255296435E1
8.192807083E0,1.121051281E0,-3.450449558E0,-1.267428665E1,1.318331902E1
8.202795083E0,1.422523780E0,-3.284590947E0,-1.316521186E1,1.364312702E1
8.212783083E0,1.801542930E0,-3.065419763E0,-1.348853248E1,1.394929618E1
8.222770083E0,2.201916696E0,-2.892307681E0,-1.360378578E1,1.408108193E1
8.232758083E0,2.376387671E0,-2.744838856E0,-1.340063012E1,1.388374036E1
8.242746083E0,2.326771561E0,-2.690898876E0,-1.299926321E1,1.347722696E1
8.252734083E0,2.170254608E0,-2.848277562E0,-1.252866175E1,1.303035131E1
8.262722083E0,1.937906431E0,-3.115417842E0,-1.195338110E1,1.250378460E1
8.272710083E0,1.665007229E0,-3.351889476E0,-1.122817901E1,1.183551503E1
8.282698083E0,1.341263562E0,-3.582561841E0,-1.049644908E1,1.117180293E1
8.292685083E0,9.938275632E-1,-3.785158215E0,-9.858271104E0,1.060663119E1
8.302673083E0,7.415103406E-1,-3.888885190E0,-9.341238661E0,1.014554116E1
8.312661083E0,4.753480808E-1,-3.873823639E0,-8.890961541E0,9.709874485E0
8.322649083E0,1.220256165E-1,-3.805633995E0,-8.591457215E0,9.397386734E0
8.332637083E0,-1.848407194E-1,-3.727647633E0,-8.511816968E0,9.294113786E0
8.342625083E0,-4.071401641E-1,-3.554967953E0,-8.680426694E0,9.389002495E0
8.352613083E0,-4.063633615E-1,-3.197515966E0,-8.857116103E0,9.425377721E0
8.362601083E0,-1.891441239E-1,-2.717755430E0,-8.797432403E0,9.209602975E0
8.372588083E0,1.132801554E-1,-2.326190786E0,-8.653397355E0,8.961321429E0
8.382576083E0,3.193130846E-1,-2.072744393E0,-8.345018710E0,8.604508553E0
8.392564083E0,4.182815950E-1,-1.798410723E0,-7.784416909E0,8.000399192E0
8.402552083E0,3.773132247E-1,-1.640884394E0,-7.259129367E0,7.451833737E0
8.412540083E0,2.568566354E-1,-1.637618286E0,-6.746991629E0,6.947637370E0
8.422528083E0,1.214156789E-1,-1.733749142E0,-6.087815128E0,6.331044218E0
8.432516083E0,1.467620431E-1,-1.846761641E0,-5.702779486E0,5.996145555E0
8.442503083E0,2.346703988E-1,-1.856584671E0,-5.695301481E0,5.994867455E0
8.452491083E0,5.235051642E-1,-1.646348471E0,-5.641076158E0,5.899683141E0
8.462479083E0,7.148137812E-1,-1.196459460E0,-5.599395450E0,5.770242923E0
8.472467083E0,7.025067079E-1,-5.613796265E-1,-5.629769982E0,5.701137852E0
8.482455083E0,3.269777611E-1,-1.074191988E-2,-5.225073661E0,5.235305589E0
8.492443083E0,-3.424054934E-1,6.682143961E-1,-4.103272474E0,4.171402282E0
8.502431083E0,-1.470879961E0,1.635287586E0,-1.241228228E0,2.525529818E0
8.512419083E0,-2.765481573E0,2.664621781E0,2.843406247E0,4.778394778E0
8.522406083E0,-3.023390854E0,3.828576715E0,6.884426340E0,8.437666617E0
8.532394083E0,-1.383693883E0,5.092145399E0,1.010797996E1,1.140244765E1
8.542382083E0,1.489342252E0,6.027236220E0,1.480816836E1,1.605700991E1
8.552370083E0,4.841788090E0,6.110628040E0,2.393144212E1,2.516935853E1
8.562358083E0,6.688188520E0,3.856674633E0,3.521201920E1,3.604846877E1
8.572346083E0,5.445326580E0,1.598957665E-2,4.476843013E1,4.509838327E1
8.582334083E0,3.015208552E0,-1.481702865E0,4.950296275E1,4.961683431E1
8.592321083E0,1.497660794E0,-4.581821906E-1,4.642814125E1,4.645455003E1
8.602309083E0,9.221045928E-1,1.601141600E0,3.775296886E1,3.779815589E1
8.612297083E0,3.976362459E-1,3.965618201E0,2.827241035E1,2.855194265E1
8.622285083E0,-4.844686775E-1,6.394975798E0,2.053841982E1,2.151643823E1
8.632273083E0,-1.162327508E0,7.685990728E0,1.547824174E1,1.732054924E1
8.642261083E0,-1.508086672E0,7.295228323E0,1.331088121E1,1.525366317E1
8.652249333E0,-1.650903744E0,5.909841671E0,1.287779899E1,1.426497174E1
8.662236333E0,-1.418972620E0,4.697610955E0,1.200353384E1,1.296787787E1
8.672224333E0,-8.255359259E-1,3.709689957E0,1.025086720E1,1.093268436E1
8.682212333E0,-2.322852830E-1,2.650456901E0,7.860165249E0,8.298257406E0
8.692200333E0,1.343330188E-1,1.527599269E0,5.080942134E0,5.307313620E0
8.702188333E0,7.311806495E-1,3.592472287E-1,2.176784486E0,2.324236307E0
8.712176333E0,1.477848088E0,-6.980756879E-1,-1.035932486E0,1.935071253E0
8.722164333E0,1.683445254E0,-1.619521738E0,-4.428034433E0,5.006428620E0
8.732152333E0,1.469548696E0,-2.452832414E0,-7.834514683E0,8.339998834E0
8.742139333E0,1.249501453E0,-2.943809372E0,-1.089787564E1,1.135741876E1
8.752127333E0,1.143883270E0,-3.231433032E0,-1.340779530E1,1.383906078E1
8.762115333E0,1.091903058E0,-3.542789957E0,-1.543818714E1,1.587706633E1
8.772103333E0,1.102070342E0,-3.759731598E0,-1.696719544E1,1.741366882E1
8.782091333E0,1.401177496E0,-3.900492497E0,-1.785473495E1,1.832944899E1
8.792079333E0,1.694786075E0,-4.009376424E0,-1.820098016E1,1.871424800E1
8.802067333E0,1.892053443E0,-4.114595315E0,-1.795567193E1,1.851798896E1
8.812055333E0,2.717644917E0,-4.042147436E0,-1.758264997E1,1.824483844E1
8.822042333E0,3.324625663E0,-3.879709739E0,-1.705237066E1,1.780136592E1
8.832030333E0,3.188429393E0,-3.806744089E0,-1.611516841E1,1.686285965E1
8.842018333E0,3.092159665E0,-3.840984214E0,-1.517661546E1,1.595757713E1
8.852006333E0,2.922780153E0,-3.924303529E0,-1.439785170E1,1.520660829E1
8.861994333E0,2.618285521E0,-4.103064021E0,-1.346797250E1,1.432050407E1
8.871982333E0,2.282084946E0,-4.210061928E0,-1.251417235E1,1.339914336E1
8.881970333E0,1.887487206E0,-4.343235188E0,-1.167403154E1,1.259798842E1
8.891957333E0,1.500495378E0,-4.486140554E0,-1.092602765E1,1.190609187E1
8.901945333E0,1.051846561E0,-4.544412736E0,-1.031427674E1,1.131999881E1
8.911933333E0,6.689967535E-1,-4.460001161E0,-9.956666880E0,1.093043377E1
8.921921333E0,3.886175005E-1,-4.254689632E0,-9.731894063E0,1.062841331E1
8.931909333E0,2.215963170E-1,-3.904265413E0,-9.138802793E0,9.940327451E0
8.941897333E0,2.113655899E-1,-3.452523565E0,-8.163140482E0,8.865746270E0
8.951885333E0,2.777390890E-1,-3.046292059E0,-7.136697443E0,7.764630364E0
8.961873333E0,2.967574503E-1,-2.735893493E0,-6.269857662E0,6.847210621E0
8.971860333E0,3.932496648E-1,-2.430430562E0,-5.574275227E0,6.093782267E0
8.981848333E0,4.976271419E-1,-2.130143001E0,-5.244685807E0,5.682593703E0
8.991836333E0,5.187297432E-1,-1.920413608E0,-5.277141362E0,5.639617889E0
9.001824333E0,7.538664575E-1,-1.781914558E0,-5.165565963E0,5.516031712E0
9.011812333E0,8.628945176E-1,-1.642472644E0,-4.989680547E0,5.323458959E0
9.021800333E0,7.482771040E-1,-1.547680069E0,-5.206889405E0,5.483331971E0
9.031788333E0,5.959046575E-1,-1.517191810E0,-5.377295396E0,5.618921526E0
9.041775333E0,5.333309716E-1,-1.279659637E0,-5.321624056E0,5.499241157E0
9.051763333E0,4.967797342E-1,-7.088668706E-1,-5.022320289E0,5.096369632E0
9.061751333E0,4.575896484E-1,4.082292080E-2,-3.932690483E0,3.959432943E0
9.071739333E0,1.713808675E-1,9.049846762E-1,-2.086322798E0,2.280594546E0
9.081727333E0,-3.586187991E-1,2.020751536E0,2.352937120E-1,2.065770400E0
9.091715333E0,-1.331324173E0,3.035129139E0,3.396823574E0,4.745823778E0
9.101703333E0,-2.257873965E0,3.967499250E0,6.942848210E0,8.309162799E0
9.111691333E0,-2.624855745E0,5.167939348E0,9.923856983E0,1.149262382E1
9.121678333E0,-1.712288107E0,6.387950369E0,1.229788501E1,1.396337410E1
9.131666333E0,5.503850704E-1,7.031797224E0,1.686794363E1,1.828323326E1
9.141654333E0,2.903971122E0,7.028105292E0,2.439097480E1,2.554891317E1
9.151642333E0,3.354677136E0,5.530717564E0,3.213244274E1,3.277707388E1
9.161630333E0,1.761142471E0,2.848947068E0,3.804664877E1,3.819379014E1
9.171618333E0,-6.103871875E-1,6.446245354E-1,4.065606465E1,4.066575594E1
9.181606333E0,-2.342258789E0,-2.491369951E-1,3.762554634E1,3.769920400E1
9.191593333E0,-2.975139338E0,5.214799811E-1,3.091075357E1,3.105797936E1
9.201581333E0,-3.205937126E0,1.940854597E0,2.329240694E1,2.359197259E1
9.211569333E0,-3.601205103E0,3.369252198E0,1.668898492E1,1.740237789E1
9.221557333E0,-3.917255588E0,4.193961620E0,1.259830793E1,1.384382780E1
9.231545333E0,-3.651950457E0,4.015620373E0,1.076361538E1,1.205476525E1
9.241533333E0,-2.551819636E0,3.358198037E0,1.010521305E1,1.095009627E1
9.251521333E0,-1.279446799E0,2.813594803E0,9.353947585E0,9.851377327E0
9.261509333E0,-2.172554903E-1,2.220964293E0,7.950259148E0,8.257511905E0
9.271496333E0,7.190456305E-1,1.165891532E0,5.773296906E0,5.933572857E0
9.281484333E0,1.489309508E0,6.040787727E-2,3.242706172E0,3.568870303E0
9.291472333E0,2.336723961E0,-9.534820676E-1,6.689419359E-1,2.610917508E0
9.301460333E0,3.006193315E0,-1.871149939E0,-1.953567613E0,4.044110133E0
9.311448333E0,3.450300454E0,-2.621438632E0,-4.751008898E0,6.430287651E0
9.321436333E0,3.507410209E0,-3.271168079E0,-7.621370809E0,9.004874235E0
9.331424333E0,3.195601295E0,-3.856382272E0,-1.019306981E1,1.135703412E1
9.341412333E0,2.828313999E0,-4.503328152E0,-1.228753544E1,1.338890778E1
9.351399333E0,2.529665705E0,-5.057859081E0,-1.405891200E1,1.515368449E1
9.361387333E0,2.361652249E0,-5.201702925E0,-1.556429638E1,1.657957890E1
9.371375333E0,2.299181913E0,-4.923625721E0,-1.657277034E1,1.744090148E1
9.381363333E0,2.131894096E0,-4.596155916E0,-1.698617083E1,1.772567688E1
9.391351333E0,2.938588100E0,-4.305624143E0,-1.692351908E1,1.770816753E1
9.401339333E0,3.466401347E0,-3.981756808E0,-1.658591956E1,1.740583388E1
9.411327333E0,3.507876525E0,-3.679876758E0,-1.606655115E1,1.685172860E1
9.421315333E0,3.487978157E0,-3.706017613E0,-1.529566477E1,1.612010914E1
9.431302333E0,3.405496749E0,-3.801600878E0,-1.420443516E1,1.509356007E1
9.441290333E0,3.592835399E0,-3.787110016E0,-1.339043141E1,1.437199783E1
9.451278333E0,3.634742978E0,-3.807837811E0,-1.279841135E1,1.383872531E1
9.461266333E0,3.588912209E0,-3.805355960E0,-1.207336596E1,1.315778061E1
9.471254333E0,3.368129240E0,-3.780140719E0,-1.139503047E1,1.246918113E1
9.481242333E0,2.901748888E0,-3.787883895E0,-1.068399736E1,1.170111151E1
9.491230333E0,2.429763833E0,-3.762658129E0,-9.986520424E0,1.094495037E1
9.501217333E0,1.871485277E0,-3.723313969E0,-9.282829070E0,1.017528573E1
9.511205333E0,1.291085389E0,-3.635466571E0,-8.582973490E0,9.410151571E0
9.521193333E0,8.655457914E-1,-3.476535156E0,-7.498210321E0,8.310151878E0
9.531181333E0,5.171774536E-1,-3.343716822E0,-6.548460531E0,7.370905646E0
9.541169333E0,8.220337361E-2,-3.143584757E0,-6.087556096E0,6.851804269E0
9.551157333E0,-2.251248193E-1,-2.926154289E0,-5.815816689E0,6.514352145E0
9.561145333E0,-1.868531848E-1,-2.654444702E0,-5.512536231E0,6.121196492E0
9.571133333E0,-3.174438760E-2,-2.283360663E0,-5.373147966E0,5.838275660E0
9.581120333E0,6.036782384E-2,-1.889490170E0,-5.518274689E0,5.833110055E0
9.591108333E0,2.623347455E-1,-1.539228796E0,-5.643541344E0,5.855561775E0
9.601096333E0,4.988518412E-1,-1.214324019E0,-5.542843519E0,5.696187344E0
9.611084333E0,4.823992382E-1,-1.015903872E0,-5.467316789E0,5.581784891E0
9.621072333E0,4.216868672E-1,-8.969282363E-1,-5.439869374E0,5.529419398E0
9.631060333E0,4.087649591E-1,-8.781876178E-1,-5.130263983E0,5.220910919E0
9.641048333E0,3.150378929E-1,-7.404821809E-1,-4.885761491E0,4.951588440E0
9.651036333E0,1.929705419E-1,-3.606439823E-1,-4.594986473E0,4.613155363E0
9.661023333E0,-1.446012045E-1,3.258562651E-1,-3.887475718E0,3.903787811E0
9.671011333E0,-8.982292418E-1,1.298737348E0,-3.373010788E0,3.724343733E0
9.680999333E0,-1.970209081E0,2.471282718E0,-2.890475163E0,4.282967286E0
9.690987333E0,-3.173715751E0,3.943616882E0,-1.348477272E0,5.238604465E0
9.700975333E0,-4.007266164E0,5.661415697E0,1.809460060E0,7.168260285E0
9.710963333E0,-3.523277506E0,6.790037661E0,7.314876137E0,1.058421035E1
9.720951333E0,-9.913982644E-1,6.818248723E0,1.819330043E1,1.945424290E1
9.730939333E0,2.344771484E0,5.803915266E0,3.281333229E1,3.340506192E1
9.740926333E0,5.374559484E0,3.543275276E0,4.400515331E1,4.447352254E1
9.750914333E0,5.798844561E0,1.698705025E0,4.765020464E1,4.803180404E1
9.760902333E0,3.980535032E0,1.917451555E0,4.482700520E1,4.504421911E1
9.770890333E0,2.705937622E0,2.944671251E0,3.805571430E1,3.826526595E1
9.780878333E0,2.565554453E0,3.601616455E0,2.917017780E1,2.950344020E1
9.790866333E0,1.440752621E0,4.402872695E0,1.944247152E1,1.998676449E1
9.800854333E0,-6.992698355E-1,5.122835680E0,1.115356152E1,1.229367147E1
9.810842333E0,-2.649501759E0,5.140060408E0,6.138400560E0,8.433269947E0
9.820829333E0,-3.483492758E0,4.461443669E0,4.983626339E0,7.541600155E0
9.830817333E0,-2.880611203E0,3.825415125E0,5.773956472E0,7.501352887E0
9.840805333E0,-1.322800979E0,3.515603035E0,5.986444289E0,7.067303755E0
9.850793333E0,-1.312833669E-1,3.074761274E0,5.020193072E0,5.888440430E0
9.860781333E0,7.823858133E-1,2.632680196E0,3.641728354E0,4.561284685E0
9.870769333E0,1.682809369E0,2.036641491E0,1.877669585E0,3.241203327E0
9.880757333E0,2.161547081E0,1.358381725E0,-6.038062924E-1,2.623369728E0
9.890744333E0,1.941152220E0,7.404807191E-1,-2.898285874E0,3.566012429E0
9.900732333E0,1.262922275E0,-2.461093068E-3,-4.169205678E0,4.356289099E0
9.910720333E0,4.829446372E-1,-1.026828810E0,-4.857210122E0,4.987995900E0
9.920708333E0,-1.171540088E-1,-1.769710834E0,-5.536446666E0,5.813591246E0
9.930696333E0,-5.640128470E-1,-2.182023007E0,-6.319515141E0,6.709367073E0
9.940684333E0,-8.372809356E-1,-2.271758617E0,-7.245350989E0,7.639177804E0
9.950672333E0,-9.314974869E-1,-2.101202938E0,-8.178392360E0,8.495224714E0
9.960660333E0,-7.515179964E-1,-1.872088710E0,-9.251920103E0,9.469293587E0
9.970647333E0,-5.108587331E-1,-1.844213132E0,-1.026546535E1,1.044231189E1
9.980635333E0,-3.231971707E-1,-1.831861913E0,-1.110892855E1,1.126359037E1
9.990623333E0,-2.574777558E-2,-1.795429666E0,-1.175632525E1,1.189266219E1
1.000061133E1,3.621006699E-1,-1.684161684E0,-1.222306170E1,1.234385494E1
1.001059933E1,8.290478367E-1,-1.435894754E0,-1.264229537E1,1.275055866E1
1.002058733E1,1.254237405E0,-1.109829890E0,-1.290302505E1,1.301126010E1
1.003057533E1,1.647028210E0,-8.430850281E-1,-1.304303546E1,1.317362017E1
1.004056333E1,1.928996444E0,-7.564000560E-1,-1.301903615E1,1.318288552E1
1.005055033E1,2.129687942E0,-6.330672213E-1,-1.288103952E1,1.307124799E1
1.006053833E1,2.187429342E0,-5.242996547E-1,-1.251140428E1,1.271200119E1
1.007052633E1,2.007501161E0,-6.241756529E-1,-1.145594677E1,1.164724742E1
1.008051433E1,1.789978745E0,-8.250995775E-1,-9.958287728E0,1.015146825E1
1.009050233E1,1.595855279E0,-1.013211960E0,-8.516458488E0,8.723727284E0
1.010049033E1,1.258629249E0,-1.223908629E0,-7.349325008E0,7.556102037E0
1.011047833E1,7.712734723E-1,-1.495341057E0,-6.392787770E0,6.610494922E0
1.012046633E1,2.652765528E-1,-1.754070117E0,-5.604201862E0,5.878283094E0
1.013045333E1,-9.303197846E-2,-1.927130013E0,-5.187142773E0,5.534341441E0
1.014044133E1,-2.350778767E-1,-1.954573627E0,-5.158565676E0,5.521450852E0
1.015042933E1,-2.498028468E-1,-1.854138196E0,-5.429426247E0,5.742725771E0
1.016041733E1,-1.922193939E-1,-1.680348861E0,-6.058257453E0,6.289912873E0
1.017040533E1,-2.707684770E-2,-1.426079764E0,-6.850945183E0,6.997848709E0
1.018039333E1,2.736939852E-1,-1.237486156E0,-7.406591468E0,7.514244976E0
1.019038133E1,6.492616698E-1,-1.118736369E0,-7.502737820E0,7.613421476E0
1.020036933E1,7.803942516E-1,-1.132386401E0,-7.383887900E0,7.510866439E0
1.021035633E1,7.447869010E-1,-1.264520319E0,-7.252044881E0,7.399045487E0
1.022034433E1,8.257791701E-1,-1.353617413E0,-6.790315989E0,6.972989500E0
1.023033233E1,6.432991178E-1,-1.436961579E0,-6.488417813E0,6.676695144E0
1.024032033E1,4.365247616E-1,-1.197817914E0,-6.703676040E0,6.823825472E0
1.025030833E1,2.618937193E-1,-7.415799956E-1,-6.603886288E0,6.650552106E0
1.026029633E1,1.044540757E-1,-2.229775755E-1,-6.015658733E0,6.020695943E0
1.027028433E1,-1.234933408E-1,5.790768094E-1,-5.379344260E0,5.411831966E0
1.028027233E1,-2.895209362E-1,9.699975282E-1,-3.977520500E0,4.104313208E0
1.029025933E1,4.202064984E-2,9.192172377E-1,-1.780434482E0,2.004163917E0
1.030024733E1,8.330976183E-1,1.256827576E0,1.221583337E0,1.940601207E0
1.031023533E1,1.571971596E0,2.108251757E0,5.409881344E0,6.015200439E0
1.032022333E1,2.786937931E0,3.233610243E0,1.215187302E1,1.287987873E1
1.033021133E1,3.553187476E0,2.887619676E0,2.184872706E1,2.232331433E1
1.034019933E1,2.984770579E0,4.990674573E-1,3.154350183E1,3.168833273E1
1.035018733E1,1.550305323E0,-1.396949667E0,3.748055644E1,3.753860714E1
1.036017533E1,1.581504823E-1,-1.237813892E0,3.820236948E1,3.822274492E1
1.037016233E1,-5.032735423E-1,-2.647057915E-1,3.382683486E1,3.383161406E1
1.038015033E1,-9.242611921E-1,6.783331490E-1,2.627072599E1,2.629573043E1
1.039013833E1,-1.001496698E0,2.083372877E0,1.985505573E1,1.998916397E1
1.040012633E1,-1.269959399E0,3.273239163E0,1.675107533E1,1.711506402E1
1.041011433E1,-1.368374178E0,3.887327784E0,1.561299199E1,1.614773309E1
1.042010233E1,-8.129666050E-1,4.359629611E0,1.475882839E1,1.541072031E1
1.043009033E1,1.038450882E-1,5.000461643E0,1.345937359E1,1.435862590E1
1.044007833E1,9.297179599E-1,5.198865271E0,1.146370018E1,1.262176681E1
1.045006533E1,1.478920467E0,4.785283522E0,9.312010185E0,1.057353667E1
1.046005333E1,1.616728523E0,4.188929798E0,7.029874075E0,8.341467106E0
1.047004133E1,1.576119318E0,3.646635337E0,4.742950265E0,6.186895717E0
1.048002933E1,1.430514731E0,2.763757522E0,2.768248476E0,4.165084352E0
1.049001733E1,1.059369807E0,1.885802038E0,1.001981798E0,2.383795553E0
1.050000533E1,6.241397656E-1,1.072911740E0,-9.959229130E-1,1.591399540E0
1.050999333E1,1.110053692E-1,1.145943171E-1,-2.934349161E0,2.938683217E0
1.051998133E1,-2.944519662E-1,-5.291923124E-1,-4.975115132E0,5.011837691E0
1.052996833E1,-5.555911754E-1,-1.018404726E0,-6.663764700E0,6.763992144E0
1.053995633E1,-8.096798120E-1,-1.623618151E0,-7.663707574E0,7.875540050E0
1.054994433E1,-9.164612988E-1,-2.107645693E0,-8.233775432E0,8.548516219E0
1.055993233E1,-7.778469852E-1,-2.429260095E0,-8.740654185E0,9.105239487E0
1.056992033E1,-4.862466330E-1,-2.528693605E0,-9.283763455E0,9.634261312E0
1.057990833E1,-1.037854100E-1,-2.519113235E0,-9.890644798E0,1.020693673E1
1.058989633E1,2.172737994E-1,-2.427633546E0,-1.060326719E1,1.087979263E1
1.059988433E1,4.270926546E-1,-2.383442629E0,-1.133912174E1,1.159477851E1
1.060987133E1,5.962974077E-1,-2.444750247E0,-1.192668037E1,1.218926081E1
1.061985933E1,6.795856956E-1,-2.515751671E0,-1.217026368E1,1.244613037E1
1.062984733E1,7.394067317E-1,-2.435500390E0,-1.244754216E1,1.270510489E1
1.063983533E1,8.115761371E-1,-2.245787624E0,-1.283460444E1,1.305485692E1
1.064982333E1,1.017589040E0,-2.176052999E0,-1.303578959E1,1.325528213E1
1.065981133E1,1.228917500E0,-2.282465308E0,-1.309265727E1,1.334681837E1
1.066979933E1,1.384657796E0,-2.328998181E0,-1.304117137E1,1.331967193E1
1.067978733E1,1.437402605E0,-2.363564727E0,-1.284974522E1,1.314414382E1
1.068977433E1,1.351950665E0,-2.442762778E0,-1.259030193E1,1.289614528E1
1.069976233E1,1.278794103E0,-2.417633930E0,-1.226749586E1,1.256868024E1
1.070975033E1,1.258581302E0,-2.331549467E0,-1.145196131E1,1.175447011E1
1.071973833E1,1.194588131E0,-2.197509065E0,-1.009359464E1,1.039888165E1
1.072972633E1,1.278741478E0,-2.004531068E0,-8.379676911E0,8.710471268E0
1.073971433E1,1.236072153E0,-1.740316443E0,-6.526528210E0,6.866742034E0
1.074970233E1,9.228525247E-1,-1.574343811E0,-5.232133005E0,5.541248144E0
1.075969033E1,7.435688529E-1,-1.597940542E0,-4.726989706E0,5.044872673E0
1.076967833E1,6.070064735E-1,-1.724318607E0,-4.785142604E0,5.122433138E0
1.077966533E1,2.676113826E-1,-1.777185622E0,-4.924091744E0,5.241820685E0
1.078965333E1,5.351592863E-2,-1.723205589E0,-4.775963060E0,5.077610128E0
1.079964133E1,6.585722644E-2,-1.629441832E0,-4.429083424E0,4.719766714E0
1.080962933E1,1.956143056E-1,-1.551717279E0,-4.187221534E0,4.469778031E0
1.081961733E1,3.769496009E-1,-1.534478956E0,-4.234277002E0,4.519493158E0
1.082960533E1,4.650886294E-1,-1.423676997E0,-4.728102431E0,4.959648800E0
1.083959333E1,6.733440853E-1,-1.201180209E0,-5.149711822E0,5.330643301E0
1.084958133E1,7.700737698E-1,-8.502800269E-1,-5.048132823E0,5.176836363E0
1.085956833E1,6.248779035E-1,-2.453260723E-1,-4.831499330E0,4.877913801E0
1.086955633E1,3.785141331E-1,6.306273244E-1,-4.365077462E0,4.426608750E0
1.087954433E1,-2.644776404E-1,1.653777066E0,-2.920992951E0,3.367065017E0
1.088953233E1,-1.213444305E0,2.147385855E0,-5.937572676E-1,2.536978673E0
1.089952033E1,-1.831779467E0,2.426244832E0,1.810899060E0,3.538564032E0
1.090950833E1,-1.836698145E0,3.678707315E0,4.052543201E0,5.773166720E0
1.091949633E1,-9.833829012E-1,5.393392780E0,6.190334360E0,8.268976182E0
1.092948433E1,1.373770427E-1,6.297694502E0,9.472962397E0,1.137615247E1
1.093947133E1,1.494562062E0,6.164408975E0,1.645060563E1,1.763111112E1
1.094945933E1,1.987129900E0,5.102552859E0,2.510343464E1,2.569371833E1
1.095944733E1,1.137042685E0,3.458369027E0,3.234702386E1,3.255123861E1
1.096943533E1,6.388170809E-2,1.927731691E0,3.784682837E1,3.789594500E1
1.097942333E1,-3.217518121E-1,9.522852887E-1,3.814404935E1,3.815729121E1
1.098941133E1,-3.941089131E-1,1.633568066E0,3.190076202E1,3.194499153E1
1.099939933E1,-1.857707191E-1,3.417913896E0,2.473729369E1,2.497299232E1
1.100938733E1,7.957307674E-1,5.042269235E0,1.971247021E1,2.036269010E1
1.101937433E1,1.989749891E0,6.097344335E0,1.656274237E1,1.776122595E1
1.102936233E1,2.933396065E0,6.882072836E0,1.482314075E1,1.660401278E1
1.103935033E1,3.845211459E0,6.912952566E0,1.390271416E1,1.599562519E1
1.104933833E1,4.530182659E0,6.382261612E0,1.274819078E1,1.495901689E1
1.105932633E1,4.639360116E0,5.566882592E0,1.087148014E1,1.306533293E1
1.106931433E1,4.029711578E0,4.416544070E0,8.873089526E0,1.069935300E1
1.107930233E1,2.852451890E0,2.879894042E0,6.905824226E0,8.007538930E0
1.108929033E1,1.512023163E0,1.254410191E0,4.917216588E0,5.295165526E0
1.109927733E1,4.528986465E-1,-2.019300842E-1,2.789471530E0,2.833203903E0
1.110926533E1,-4.302840284E-1,-1.421972242E0,5.152005100E-1,1.572444265E0
1.111925333E1,-7.674683967E-1,-2.381773687E0,-2.012335639E0,3.211128830E0
1.112924133E1,-8.816805252E-1,-3.214816123E0,-4.373803847E0,5.499323899E0
1.113922933E1,-8.642547993E-1,-3.768927806E0,-6.459041986E0,7.528012788E0
1.114921733E1,-6.454745744E-1,-4.099904771E0,-8.272755895E0,9.255503587E0
1.115920533E1,-3.019897581E-1,-4.357744177E0,-9.720745177E0,1.065711119E1
1.116919333E1,2.009629548E-2,-4.599362237E0,-1.084807140E1,1.178283454E1
1.117918133E1,1.143757408E-1,-4.981812533E0,-1.163034348E1,1.265292170E1
1.118916833E1,7.304330830E-2,-5.396385970E0,-1.211110740E1,1.325915681E1
1.119915633E1,3.003374811E-1,-5.644075195E0,-1.277293152E1,1.396758988E1
1.120914433E1,5.155976091E-1,-5.693254956E0,-1.333383621E1,1.450759046E1
1.121913233E1,7.649868384E-1,-5.638782295E0,-1.370145066E1,1.483613227E1
1.122912033E1,9.208260991E-1,-5.432046969E0,-1.396453326E1,1.501210326E1
1.123910833E1,1.022270613E0,-5.198723184E0,-1.413748220E1,1.509768734E1
1.124909633E1,1.216164284E0,-4.971253631E0,-1.424614920E1,1.513754225E1
1.125908433E1,1.361267764E0,-4.756028440E0,-1.434341412E1,1.517255368E1
1.126907133E1,1.495742907E0,-4.588102839E0,-1.438611283E1,1.517393083E1
1.127905933E1,1.708964842E0,-4.508109713E0,-1.428705164E1,1.507857615E1
1.128904733E1,1.748918281E0,-4.416826198E0,-1.396153013E1,1.474758938E1
1.129903533E1,1.712693465E0,-4.354533471E0,-1.346247846E1,1.425249476E1
1.130902333E1,1.673284693E0,-4.316325425E0,-1.280928015E1,1.362013968E1
1.131901133E1,1.567412522E0,-4.211859070E0,-1.191317096E1,1.273264235E1
1.132899933E1,1.264385833E0,-4.073635862E0,-1.126713784E1,1.204747175E1
1.133898733E1,8.621289709E-1,-3.961409667E0,-1.089701376E1,1.162673393E1
1.134897433E1,4.398689304E-1,-3.861997061E0,-1.033413272E1,1.104096033E1
1.135896233E1,-2.917798983E-2,-3.750523110E0,-9.837982435E0,1.052868336E1
1.136895033E1,-3.333935454E-1,-3.666369690E0,-9.535367975E0,1.022138251E1
1.137893833E1,-1.424250719E-1,-3.524125352E0,-9.124850167E0,9.782772356E0
1.138892633E1,2.679844897E-1,-3.275140092E0,-8.572054984E0,9.180331419E0
1.139891433E1,4.517421404E-1,-3.005097547E0,-8.301343517E0,8.840078417E0
1.140890233E1,6.055417460E-1,-2.597678471E0,-8.551385661E0,8.957723537E0
1.141889033E1,8.095865489E-1,-2.181208782E0,-8.796571108E0,9.099052994E0
1.142887833E1,7.970295071E-1,-1.956887370E0,-8.368643800E0,8.631272401E0
1.143886533E1,7.449238721E-1,-1.762752501E0,-6.942787984E0,7.201702087E0
1.144885333E1,8.304728215E-2,-1.693492524E0,-5.208370505E0,5.477402404E0
1.145884133E1,-6.807933649E-1,-1.772690429E0,-3.884270275E0,4.323594168E0
1.146882933E1,-1.197229099E0,-1.531379640E0,-2.914500788E0,3.503255052E0
1.147881733E1,-1.223532872E0,-7.164838922E-1,-2.311123096E0,2.711396655E0
1.148880533E1,-1.005057433E0,5.041305614E-1,-1.616346992E0,1.968975791E0
1.149879333E1,-1.057334903E0,1.903068135E0,-6.102054852E-1,2.260967970E0
1.150878133E1,-1.351836205E0,3.283344321E0,7.910429084E-1,3.637796027E0
1.151876833E1,-1.641405527E0,4.689757852E0,2.531338593E0,5.576353279E0
1.152875633E1,-1.186207609E0,5.961417621E0,4.345484612E0,7.471868914E0
1.153874433E1,8.335509968E-1,7.194721118E0,7.953144164E0,1.075691969E1
1.154873233E1,3.955733483E0,8.115552333E0,1.534729685E1,1.780588492E1
1.155872033E1,7.699899500E0,8.506662648E0,2.633765556E1,2.872845040E1
1.156870833E1,9.819796425E0,7.228335591E0,3.581029695E1,3.782928237E1
1.157869633E1,9.014580451E0,5.224264991E0,3.990228371E1,4.124012428E1
1.158868433E1,6.563935772E0,3.949144840E0,3.832714673E1,3.908517844E1
1.159867133E1,3.971779704E0,3.745429308E0,3.275674060E1,3.320854302E1
1.160865933E1,2.793435357E0,4.115051690E0,2.666847231E1,2.712829422E1
1.161864733E1,2.190726441E0,4.334646505E0,2.089373407E1,2.145079406E1
1.162863533E1,1.303271279E0,4.548984674E0,1.575122017E1,1.644666271E1
1.163862333E1,4.119279008E-1,4.673319575E0,1.187329062E1,1.276654340E1
1.164861175E1,-5.802203055E-2,4.707772539E0,9.551085291E0,1.064846088E1
1.165859975E1,1.524139252E-1,4.728845612E0,8.426314888E0,9.663746345E0
1.166858775E1,6.875209520E-1,4.848289025E0,7.908814083E0,9.302039117E0
1.167857575E1,1.255513268E0,4.773046177E0,7.576870574E0,9.042524596E0
1.168856275E1,1.503911175E0,4.327029922E0,6.508682508E0,7.959138443E0
1.169855075E1,1.433197726E0,3.669947602E0,5.010054000E0,6.373634144E0
1.170853875E1,1.565498874E0,2.848674296E0,4.297134570E0,5.388051363E0
1.171852675E1,1.933341802E0,1.929862416E0,4.109797382E0,4.934836775E0
1.172851475E1,2.098769765E0,9.274334528E-1,3.550438115E0,4.227360660E0
1.173850275E1,1.584541209E0,-2.549516125E-1,2.350610513E0,2.846250332E0
1.174849075E1,6.321166833E-1,-1.490647205E0,9.132228184E-1,1.858918101E0
1.175847875E1,-2.781535835E-1,-2.519503244E0,-5.599404806E-1,2.595919751E0
1.176846575E1,-9.118414137E-1,-3.182608197E0,-1.966284138E0,3.850548404E0
1.177845375E1,-1.096652312E0,-3.383633425E0,-3.305800552E0,4.855917909E0
1.178844175E1,-1.098399022E0,-3.409586876E0,-4.734426779E0,5.936881336E0
1.179842975E1,-9.521193009E-1,-3.428574539E0,-6.422260076E0,7.342144034E0
1.180841775E1,-7.239528331E-1,-3.267094031E0,-8.009693171E0,8.680621856E0
1.181840575E1,-2.514069573E-1,-2.925091850E0,-9.497996081E0,9.941393129E0
1.182839375E1,1.557697519E-1,-2.664773809E0,-1.086534992E1,1.118843656E1
1.183838175E1,2.860897169E-1,-2.483373883E0,-1.201070135E1,1.226808625E1
1.184836975E1,5.230300049E-1,-2.287148635E0,-1.292564559E1,1.313685363E1
1.185835675E1,7.888538571E-1,-2.161263637E0,-1.370284580E1,1.389465127E1
1.186834475E1,9.046289463E-1,-2.095049475E0,-1.432234894E1,1.450300883E1
1.187833275E1,1.079439571E0,-1.987791367E0,-1.465252601E1,1.482609263E1
1.188832075E1,1.403923349E0,-1.844129225E0,-1.477487549E1,1.495555947E1
1.189830875E1,1.845083637E0,-1.684585168E0,-1.470946853E1,1.492014160E1
1.190829675E1,2.247506267E0,-1.650939120E0,-1.441634060E1,1.468358814E1
1.191828475E1,2.424521073E0,-1.639755004E0,-1.383456603E1,1.414080323E1
1.192827275E1,2.450911312E0,-1.699447767E0,-1.282871396E1,1.317083865E1
1.193825975E1,2.223575368E0,-1.860640592E0,-1.152692729E1,1.188597171E1
1.194824775E1,1.823874616E0,-2.019301573E0,-1.041594696E1,1.076550271E1
1.195823575E1,1.451197210E0,-2.148611432E0,-9.541878850E0,9.887869154E0
1.196822375E1,1.128522415E0,-2.262694848E0,-8.783075734E0,9.139790488E0
1.197821175E1,8.232546347E-1,-2.346075559E0,-8.139901893E0,8.511158649E0
1.198819975E1,6.105520058E-1,-2.321882558E0,-7.587900762E0,7.958652545E0
1.199818775E1,2.927775429E-1,-2.296433136E0,-7.380274905E0,7.734842048E0
1.200817575E1,-7.025685422E-2,-2.269973755E0,-7.376286519E0,7.717986764E0
1.201816375E1,-2.199308838E-1,-2.267569964E0,-7.339644942E0,7.685091477E0
1.202815075E1,-3.248816074E-1,-2.223551979E0,-7.249482046E0,7.589777428E0
1.203813875E1,-4.277823702E-1,-2.139934018E0,-7.277870278E0,7.598007051E0
1.204812675E1,-2.356987779E-1,-2.011288841E0,-7.265035640E0,7.541987773E0
1.205811475E1,2.012326576E-1,-1.936759792E0,-7.325588821E0,7.579959409E0
1.206810275E1,6.096000791E-1,-1.906171545E0,-7.455061963E0,7.719005835E0
1.207809075E1,8.152208528E-1,-2.096125947E0,-7.312737810E0,7.650781875E0
1.208807875E1,7.409433069E-1,-2.338855271E0,-7.116744404E0,7.527768054E0
1.209806675E1,7.415162610E-1,-2.192449762E0,-7.065963090E0,7.435355856E0
1.210805375E1,9.878709316E-1,-1.639743018E0,-7.174085709E0,7.425102821E0
1.211804175E1,1.095714053E0,-7.817639619E-1,-7.233377645E0,7.357546897E0
1.212802975E1,1.251796193E0,1.288362341E-1,-6.349348220E0,6.472852177E0
1.213801775E1,9.284844898E-1,8.786537871E-1,-4.445324650E0,4.625475886E0
1.214800575E1,1.960761077E-1,1.510534608E0,-2.306581564E0,2.764141667E0
1.215799375E1,-7.819249065E-1,1.915657629E0,3.391203815E-1,2.096700585E0
1.216798175E1,-1.324626772E0,2.200338386E0,3.578446863E0,4.404702833E0
1.217796975E1,-7.722147278E-1,2.550802805E0,6.610452712E0,7.127481714E0
1.218795775E1,9.503330496E-1,3.066815785E0,9.486742530E0,1.001532704E1
1.219794475E1,3.114656827E0,3.749597204E0,1.355711331E1,1.440680005E1
1.220793275E1,4.606730606E0,4.324371193E0,1.974884924E1,2.073497527E1
1.221792075E1,5.130609553E0,4.577876351E0,2.661898850E1,2.749273822E1
1.222790875E1,5.098046409E0,4.539359280E0,3.092977339E1,3.167407050E1
1.223789675E1,3.874902450E0,4.320229611E0,3.163844190E1,3.216629072E1
1.224788475E1,1.997410621E0,3.979783373E0,3.019861182E1,3.052514506E1
1.225787275E1,6.678395896E-1,3.836825967E0,2.775251335E1,2.802444006E1
1.226786075E1,-1.909678340E-1,4.301754163E0,2.440161439E1,2.477862673E1
1.227784875E1,-1.316391700E0,4.357480175E0,2.044844755E1,2.094897438E1
1.228783575E1,-2.827497435E0,4.291105506E0,1.690649199E1,1.767025182E1
1.229782375E1,-3.857571011E0,4.284291746E0,1.455657320E1,1.565662266E1
1.230781175E1,-4.030757645E0,4.254947202E0,1.348037913E1,1.469939469E1
1.231779975E1,-3.281125887E0,4.468698602E0,1.295995354E1,1.409593736E1
1.232778775E1,-2.006912054E0,5.024173272E0,1.206701355E1,1.322432717E1
1.233777575E1,-1.005975227E0,5.345492975E0,1.074120768E1,1.203992624E1
1.234776375E1,-2.844957111E-1,5.098376777E0,8.940562887E0,1.029602099E1
1.235775175E1,3.697303361E-1,4.631620741E0,6.931640852E0,8.344834097E0
1.236773875E1,8.249688191E-1,4.087288233E0,4.945463317E0,6.468702039E0
1.237772675E1,1.365279831E0,3.499405956E0,3.073387179E0,4.853404971E0
1.238771475E1,1.633797130E0,2.910108067E0,1.320726972E0,3.589197927E0
1.239770275E1,1.365163179E0,1.985031773E0,-1.051937485E-1,2.411449226E0
1.240769075E1,9.142061739E-1,7.698967454E-1,-1.275039752E0,1.747638491E0
1.241767875E1,5.111832171E-1,-2.708360124E-1,-2.462154338E0,2.529202327E0
1.242766675E1,2.632200871E-1,-8.759020874E-1,-3.872436095E0,3.978976073E0
1.243765475E1,1.414723229E-1,-1.051332152E0,-5.353141133E0,5.457236819E0
1.244764275E1,1.190981715E-1,-1.032940904E0,-6.774816189E0,6.854143687E0
1.245762975E1,9.540810417E-2,-1.114738774E0,-7.996091963E0,8.073984885E0
1.246761775E1,9.486866198E-2,-1.291023701E0,-8.907188734E0,9.000764045E0
1.247760575E1,1.882139050E-1,-1.490562274E0,-9.637514740E0,9.753916686E0
1.248759375E1,2.466992178E-1,-1.521168647E0,-1.022211878E1,1.033762675E1
1.249758175E1,3.257677529E-1,-1.462648251E0,-1.069170165E1,1.079620066E1
1.250756975E1,5.160471869E-1,-1.482063931E0,-1.113218176E1,1.124225462E1
1.251755775E1,7.614667415E-1,-1.600496945E0,-1.161381691E1,1.174828351E1
1.252754575E1,1.029882957E0,-1.678714125E0,-1.209247934E1,1.225180789E1
1.253753375E1,1.420080521E0,-1.660313669E0,-1.248916965E1,1.267882600E1
1.254752075E1,1.765562381E0,-1.694737543E0,-1.265430087E1,1.288878103E1
1.255750875E1,2.046554714E0,-1.787103085E0,-1.263563890E1,1.292445333E1
1.256749675E1,2.278745309E0,-1.975615271E0,-1.258684973E1,1.294312644E1
1.257748475E1,2.378662530E0,-2.207860683E0,-1.231505010E1,1.273550718E1
1.258747275E1,2.405812030E0,-2.358293170E0,-1.158215190E1,1.206216070E1
1.259746075E1,2.207233277E0,-2.492375087E0,-1.085095407E1,1.135019897E1
1.260744875E1,1.814032144E0,-2.555885205E0,-1.040276733E1,1.086465968E1
1.261743675E1,1.386126909E0,-2.580688216E0,-9.942117838E0,1.036470002E1
1.262742475E1,8.842865561E-1,-2.625772296E0,-9.562789662E0,9.956083014E0
1.263741175E1,4.276736851E-1,-2.597590470E0,-9.238953318E0,9.606697635E0
1.264739975E1,3.436953161E-1,-2.504548698E0,-8.772733179E0,9.129717306E0
1.265738696E1,4.664498612E-1,-2.351741949E0,-8.200609440E0,8.543901969E0
1.266737496E1,4.299874283E-1,-2.225465772E0,-7.892653549E0,8.211672615E0
1.267736296E1,4.840170897E-1,-2.105356654E0,-7.809067601E0,8.102366073E0
1.268735096E1,6.405792855E-1,-1.937976598E0,-7.699253383E0,7.965211721E0
1.269733896E1,5.232009628E-1,-1.773257901E0,-7.675943457E0,7.895460138E0
1.270732696E1,4.606021339E-1,-1.808404638E0,-7.637533683E0,7.862213582E0
1.271731496E1,6.667119540E-1,-1.905329107E0,-7.136641894E0,7.416632751E0
1.272730196E1,8.766562320E-1,-1.997386501E0,-6.511072850E0,6.866742214E0
1.273728996E1,8.369943490E-1,-2.132946156E0,-6.460833573E0,6.855099511E0
1.274727796E1,8.270488199E-1,-2.204732277E0,-6.767945711E0,7.165887475E0
1.275726596E1,9.189667576E-1,-2.214225670E0,-6.858653567E0,7.265564257E0
1.276725396E1,9.117887887E-1,-2.272821203E0,-6.662952522E0,7.098733079E0
1.277724196E1,8.767375814E-1,-2.278177106E0,-6.452628760E0,6.898925831E0
1.278722996E1,8.567344759E-1,-2.039974696E0,-6.046613308E0,6.438712854E0
1.279721796E1,5.379235210E-1,-1.668911414E0,-5.559946625E0,5.829891380E0
1.280720596E1,1.732180627E-1,-1.237995448E0,-4.993846688E0,5.147925987E0
1.281719296E1,-1.688269499E-1,-6.792491153E-1,-3.440663073E0,3.511131482E0
1.282718096E1,-1.003883459E0,5.425806820E-2,-1.566179636E0,1.861086937E0
1.283716896E1,-1.560030119E0,9.770002998E-1,1.054744148E-1,1.843732196E0
1.284715696E1,-2.134693597E0,1.957482909E0,2.206675453E0,3.641163639E0
1.285714496E1,-1.833318746E0,3.613380468E0,4.428954200E0,6.002766974E0
1.286713296E1,-1.041085783E-1,5.606063030E0,7.354192230E0,9.247860545E0
1.287712096E1,2.221659089E0,6.692134806E0,1.351350828E1,1.524255042E1
1.288710896E1,5.052852695E0,7.379966757E0,2.405503589E1,2.566398218E1
1.289709596E1,7.907032437E0,7.051459072E0,3.522668401E1,3.678537078E1
1.290708396E1,9.159921767E0,5.363845630E0,4.165413759E1,4.298537175E1
1.291707196E1,7.758379843E0,4.013011053E0,4.160161088E1,4.250871373E1
1.292705996E1,4.527625672E0,3.464762372E0,3.651814450E1,3.696050393E1
1.293704796E1,1.829298055E0,3.418089020E0,2.979940837E1,3.005053083E1
1.294703596E1,1.028377226E-2,3.165699219E0,2.298503285E1,2.320201483E1
1.295702396E1,-1.706348066E0,3.185461054E0,1.672932603E1,1.711517266E1
1.296701196E1,-3.147728971E0,3.214372611E0,1.249055778E1,1.327608461E1
1.297699996E1,-4.288020223E0,2.655672910E0,1.024973167E1,1.142351589E1
1.298698696E1,-4.336456511E0,2.112346123E0,9.498373227E0,1.065297870E1
1.299697496E1,-3.149467348E0,1.961766287E0,9.496790970E0,1.019591635E1
1.300696296E1,-1.663541332E0,2.054406063E0,8.889244798E0,9.273975799E0
1.301695096E1,-3.911350192E-1,2.134685995E0,7.227912837E0,7.546694302E0
1.302693896E1,3.365709955E-1,2.178995611E0,5.019019536E0,5.481957589E0
1.303692696E1,8.038969157E-1,2.044943222E0,3.135141377E0,3.828466336E0
1.304691496E1,1.497926111E0,1.652448433E0,1.932308307E0,2.950963207E0
1.305690296E1,2.018466737E0,1.001780069E0,9.400890201E-1,2.441626229E0
1.306689096E1,2.067814021E0,1.595101427E-1,-3.672279471E-1,2.106218098E0
1.307687796E1,1.603427277E0,-6.143111077E-1,-2.033195581E0,2.661248098E0
1.308686596E1,8.951219583E-1,-1.158407973E0,-3.984053594E0,4.244506496E0
1.309685396E1,3.837999064E-1,-1.504686808E0,-6.019282252E0,6.216360960E0
1.310684196E1,1.648330092E-2,-1.669068120E0,-7.959878987E0,8.133002740E0
1.311682996E1,-2.524390639E-1,-1.836737906E0,-9.729221885E0,9.904296548E0
1.312681796E1,-3.237541911E-1,-1.995850145E0,-1.116599036E1,1.134758015E1
1.313680596E1,-2.428127928E-1,-2.134371561E0,-1.223089463E1,1.241810305E1
1.314679396E1,-1.130316487E-1,-2.250968257E0,-1.299981986E1,1.319374665E1
1.315678196E1,1.561420003E-1,-2.271444768E0,-1.363623666E1,1.382500604E1
1.316676896E1,5.561478303E-1,-2.218953728E0,-1.394211504E1,1.412853948E1
1.317675696E1,1.005285767E0,-2.213277251E0,-1.386742504E1,1.407887328E1
1.318674496E1,1.424258211E0,-2.258868869E0,-1.367097263E1,1.392933927E1
1.319673296E1,1.707731810E0,-2.355330093E0,-1.350767861E1,1.381742773E1
1.320672096E1,1.861033233E0,-2.450095333E0,-1.332877252E1,1.367927588E1
1.321670896E1,1.885705852E0,-2.559935279E0,-1.311840841E1,1.349821449E1
1.322669696E1,1.823813366E0,-2.759104308E0,-1.284405705E1,1.326305973E1
1.323668496E1,1.697310025E0,-3.027700252E0,-1.246781094E1,1.294195271E1
1.324667296E1,1.393593365E0,-3.314239839E0,-1.201200060E1,1.253851852E1
1.325665996E1,1.083808757E0,-3.578978959E0,-1.151506680E1,1.210704320E1
1.326664796E1,8.167044376E-1,-3.744855112E0,-1.089089524E1,1.154567213E1
1.327663596E1,4.763288782E-1,-3.787131066E0,-1.022174455E1,1.091115542E1
1.328662396E1,2.180729310E-1,-3.805279069E0,-9.480594767E0,1.021809090E1
1.329661196E1,1.559248493E-1,-3.707647232E0,-8.721861818E0,9.478493242E0
1.330659996E1,2.375854551E-1,-3.483029074E0,-8.190300799E0,8.903312056E0
1.331658796E1,3.179087296E-1,-3.167857426E0,-8.044853064E0,8.651938942E0
1.332657596E1,4.483025157E-1,-2.905087648E0,-7.916716011E0,8.444815083E0
1.333656396E1,8.043321678E-1,-2.621569317E0,-7.539996863E0,8.023162008E0
1.334655096E1,1.129331597E0,-2.384463553E0,-7.094341382E0,7.569064403E0
1.335653896E1,1.204121505E0,-2.178066196E0,-6.653946640E0,7.104145751E0
1.336652696E1,1.138178141E0,-2.167119039E0,-6.157468915E0,6.626181242E0
1.337651496E1,9.587773061E-1,-2.316708649E0,-5.842380590E0,6.357657103E0
1.338650296E1,8.375634293E-1,-2.492224229E0,-5.748616979E0,6.321336194E0
1.339649096E1,6.047532490E-1,-2.387710219E0,-5.289349764E0,5.834732857E0
1.340647896E1,1.728042260E-1,-1.935999069E0,-4.443817238E0,4.850305695E0
1.341646696E1,-3.742552771E-1,-1.342147954E0,-3.375508134E0,3.651778102E0
1.342645496E1,-1.093903244E0,-6.759205878E-1,-1.982867426E0,2.363314659E0
1.343644196E1,-1.806339986E0,3.736566684E-1,-4.348042184E-1,1.895135393E0
1.344642996E1,-2.457359036E0,1.899576763E0,1.052036887E0,3.279296712E0
1.345641796E1,-2.671018927E0,3.864367522E0,2.006121803E0,5.108052774E0
1.346640596E1,-1.457348920E0,5.957479522E0,3.589208663E0,7.106183712E0
1.347639396E1,7.884988580E-1,7.362861897E0,8.555997945E0,1.131541279E1
1.348638196E1,3.443501312E0,7.918391823E0,1.875389872E1,2.064624294E1
1.349636996E1,6.171421541E0,7.466370478E0,3.036700227E1,3.187456602E1
1.350635796E1,7.710101137E0,5.482999606E0,3.706891479E1,3.825720048E1
1.351634596E1,6.572959780E0,3.763545444E0,3.793835834E1,3.868704057E1
1.352633296E1,3.508073576E0,3.011179236E0,3.480422736E1,3.510994194E1
1.353632096E1,1.047478910E0,2.948419024E0,2.944205930E1,2.960785778E1
1.354630896E1,-4.623156239E-1,3.010101010E0,2.374987672E1,2.394433311E1
1.355629696E1,-1.907960501E0,2.917868492E0,1.787311626E1,1.820995757E1
1.356628496E1,-3.395786862E0,2.663937072E0,1.213883958E1,1.288329753E1
1.357627296E1,-4.469231283E0,2.427474209E0,7.621570784E0,9.162696138E0
1.358626096E1,-4.811442211E0,2.114782073E0,4.703263459E0,7.052869382E0
1.359624896E1,-4.230110276E0,1.695154888E0,3.404124407E0,5.688184774E0
1.360623696E1,-2.855529571E0,1.381256763E0,2.545012307E0,4.066817801E0
1.361622496E1,-1.400300560E0,1.294605705E0,1.338205469E0,2.329729484E0
1.362621196E1,-2.118730552E-1,1.126041880E0,-2.684053248E-1,1.176818561E0
1.363619996E1,9.154001022E-1,8.123612720E-1,-1.993640336E0,2.339335370E0
1.364618796E1,1.809324989E0,5.062270805E-1,-3.603236133E0,4.063647796E0
1.365617608E1,2.248133381E0,1.232420567E-1,-5.017328521E0,5.499352488E0
1.366616408E1,2.416995999E0,-2.558627549E-1,-6.312282135E0,6.764040299E0
1.367615208E1,2.447377108E0,-6.847712258E-1,-7.338251551E0,7.765854889E0
1.368614008E1,2.311343098E0,-1.090529400E0,-8.082567605E0,8.476995952E0
1.369612808E1,1.851774167E0,-1.495899612E0,-8.813480671E0,9.129305820E0
1.370611608E1,1.301856545E0,-1.986722788E0,-9.392046872E0,9.687747021E0
1.371610308E1,9.518449934E-1,-2.394105611E0,-9.822404283E0,1.015467264E1
1.372609108E1,6.667264259E-1,-2.624994324E0,-1.023894472E1,1.059108627E1
1.373607908E1,5.823686457E-1,-2.650667401E0,-1.063519299E1,1.097599748E1
1.374606708E1,8.067706029E-1,-2.446727044E0,-1.112211051E1,1.141659732E1
1.375605508E1,1.223366592E0,-2.126685835E0,-1.156499266E1,1.182237175E1
1.376604308E1,1.651551762E0,-1.834761254E0,-1.188115395E1,1.213489972E1
1.377603108E1,2.102395332E0,-1.529112090E0,-1.203830606E1,1.231580540E1
1.378601908E1,2.443785310E0,-1.202980128E0,-1.199210136E1,1.229755028E1
1.379600708E1,2.650070400E0,-1.035894772E0,-1.183732322E1,1.217448858E1
1.380599408E1,2.774156210E0,-1.055166025E0,-1.159152265E1,1.196548015E1
1.381598208E1,2.829591615E0,-1.107891830E0,-1.120151570E1,1.160637614E1
1.382597008E1,2.752359837E0,-1.176168598E0,-1.072939397E1,1.113906424E1
1.383595808E1,2.589793793E0,-1.191054147E0,-1.004233678E1,1.043906939E1
1.384594608E1,2.315329876E0,-1.289096459E0,-9.157071834E0,9.532811059E0
1.385593408E1,1.965408225E0,-1.398399338E0,-8.210153850E0,8.557159368E0
1.386592208E1,1.480184782E0,-1.426557190E0,-7.137646446E0,7.427786291E0
1.387591008E1,8.822127680E-1,-1.419654551E0,-6.077656175E0,6.303302547E0
1.388589808E1,4.024525244E-1,-1.369275234E0,-4.982018355E0,5.182411561E0
1.389588608E1,1.995210314E-1,-1.201323612E0,-3.660623047E0,3.857868343E0
1.390587308E1,2.268756949E-1,-9.810183603E-1,-2.125288058E0,2.351748059E0
1.391586108E1,3.071944378E-2,-7.272129482E-1,-6.630532050E-1,9.845922552E-1
1.392584908E1,-3.135635906E-1,-1.227766183E-1,6.679718828E-1,7.480525781E-1
1.393583708E1,-8.491656938E-1,6.922027445E-1,2.005023111E0,2.284807364E0
1.394582508E1,-1.409771588E0,1.279116723E0,3.976049926E0,4.408238711E0
1.395581308E1,-1.576512836E0,1.874367077E0,6.460475138E0,6.909152168E0
1.396580108E1,-9.961587019E-1,2.921132115E0,8.312701734E0,8.867150337E0
1.397578908E1,1.028707959E-1,4.434887662E0,9.286763662E0,1.029187982E1
1.398577708E1,1.284195907E0,5.368572519E0,1.022122532E1,1.161654755E1
1.399576408E1,2.264894425E0,4.585927382E0,1.262709845E1,1.362365928E1
1.400575208E1,2.536965369E0,3.048528326E0,1.716614111E1,1.761834608E1
1.401574008E1,2.303897838E0,1.771419244E0,2.143749706E1,2.163358850E1
1.402572808E1,1.864553257E0,1.018140578E0,2.275269958E1,2.285166312E1
1.403571608E1,1.117812582E0,8.143054712E-1,2.139225364E1,2.143691009E1
1.404570408E1,1.412959014E-1,1.251201239E0,1.828588290E1,1.832918391E1
1.405569208E1,-6.511504667E-1,1.710298884E0,1.552485691E1,1.563234791E1
1.406568008E1,-1.012798416E0,1.911457720E0,1.350018365E1,1.367239517E1
1.407566808E1,-1.514498290E0,1.826566382E0,1.145020480E1,1.169346996E1
1.408565608E1,-2.134956575E0,1.549510101E0,9.965199137E0,1.030845357E1
1.409564308E1,-2.287351241E0,1.330062928E0,8.976299314E0,9.358151125E0
1.410563108E1,-1.730174008E0,1.284187429E0,7.710516874E0,8.005917182E0
1.411561908E1,-9.586784881E-1,1.316008561E0,6.037399265E0,6.253089865E0
1.412560708E1,-4.009929132E-2,1.391670362E0,3.970202125E0,4.207238912E0
1.413559508E1,8.603436698E-1,1.392482248E0,1.516678863E0,2.231482201E0
1.414558308E1,1.571513466E0,1.290886584E0,-9.940360165E-1,2.263658620E0
1.415557108E1,2.086493390E0,1.123457703E0,-3.274363582E0,4.041913995E0
1.416555908E1,2.380112640E0,8.630996087E-1,-5.262025141E0,5.839416554E0
1.417554708E1,2.307675286E0,5.084387898E-1,-6.859281558E0,7.254903082E0
1.418553408E1,1.895080108E0,8.091903269E-2,-8.087068207E0,8.306536504E0
1.419552208E1,1.212675689E0,-4.308117396E-1,-8.897474754E0,8.990063297E0
1.420551008E1,2.678433343E-1,-1.026352116E0,-9.217420362E0,9.278252898E0
1.421549808E1,-6.067283653E-1,-1.570451904E0,-9.205749904E0,9.358433084E0
1.422548608E1,-1.171430161E0,-1.965880972E0,-9.133679463E0,9.415998999E0
1.423547408E1,-1.473824034E0,-2.223502862E0,-9.188968395E0,9.568346901E0
1.424546208E1,-1.547990118E0,-2.337867091E0,-9.438235783E0,9.845922539E0
1.425545008E1,-1.393380965E0,-2.284955052E0,-9.709636052E0,1.007172092E1
1.426543808E1,-1.016195356E0,-2.122291360E0,-1.002239777E1,1.029491285E1
1.427542608E1,-4.095519213E-1,-1.866295581E0,-1.030566145E1,1.048129047E1
1.428541308E1,2.586950000E-1,-1.585281028E0,-1.040888586E1,1.053209115E1
1.429540108E1,8.516354846E-1,-1.375018661E0,-1.037455569E1,1.049987452E1
1.430538908E1,1.323716945E0,-1.235096837E0,-1.023037271E1,1.038933186E1
1.431537708E1,1.649430246E0,-1.137774611E0,-1.003463131E1,1.023274044E1
1.432536508E1,1.794014055E0,-1.151668180E0,-9.773193532E0,1.000300644E1
1.433535308E1,1.795928726E0,-1.242380714E0,-9.270690835E0,9.524420108E0
1.434534108E1,1.677829588E0,-1.424472950E0,-8.582565354E0,8.860285738E0
1.435532908E1,1.395821593E0,-1.744326463E0,-8.131113528E0,8.432437366E0
1.436531708E1,9.970805155E-1,-2.084042968E0,-7.972904829E0,8.300880439E0
1.437530508E1,6.902002193E-1,-2.207505757E0,-7.958382685E0,8.287660283E0
1.438529208E1,4.995402778E-1,-2.229818440E0,-7.881607574E0,8.206178691E0
1.439528008E1,5.552105948E-1,-2.148677213E0,-7.468722813E0,7.791462829E0
1.440526808E1,8.513325989E-1,-1.887252002E0,-6.541892354E0,6.861693878E0
1.441525608E1,1.043900779E0,-1.533826700E0,-5.395015383E0,5.705133141E0
1.442524408E1,1.020432833E0,-1.210096190E0,-4.115700147E0,4.409603571E0
1.443523208E1,7.726606511E-1,-9.396490172E-1,-2.765589162E0,3.021328875E0
1.444522008E1,1.341036983E-1,-6.989182717E-1,-1.798231652E0,1.933935786E0
1.445520808E1,-6.044000041E-1,-3.200260064E-1,-1.587357666E0,1.728415567E0
1.446519608E1,-1.353585108E0,2.687052870E-1,-1.786606802E0,2.257511692E0
1.447518408E1,-2.404708660E0,1.211508000E0,-1.130857939E0,2.920481990E0
1.448517108E1,-2.818916646E0,2.570619603E0,1.200356190E0,3.999403854E0
1.449515908E1,-2.020210815E0,4.153769321E0,4.624757572E0,6.536316540E0
1.450514708E1,-9.676473860E-1,5.223575020E0,8.775443949E0,1.025819155E1
1.451513508E1,5.577150303E-1,4.707726054E0,1.322018271E1,1.404446373E1
1.452512308E1,2.016667987E0,2.947563869E0,1.764050466E1,1.799840235E1
1.453511108E1,2.694922345E0,1.791763754E0,2.080485171E1,2.105504402E1
1.454509908E1,2.505069685E0,1.716265967E0,2.211833515E1,2.232580778E1
1.455508708E1,2.174447062E0,2.108513858E0,2.254476791E1,2.274732096E1
1.456507508E1,2.269837515E0,2.081986795E0,2.281783990E1,2.302478337E1
1.457506208E1,2.184445216E0,1.651917944E0,2.242314817E1,2.258978104E1
1.458505008E1,1.349343099E0,1.488191813E0,1.998998374E1,2.009066678E1
1.459503808E1,5.586563224E-2,2.006086135E0,1.623848736E1,1.636202843E1
1.460502608E1,-9.796545703E-1,2.671180311E0,1.222303246E1,1.254979880E1
1.461501408E1,-1.552336499E0,3.229198519E0,8.665198206E0,9.376733526E0
1.462500208E1,-1.769140877E0,3.720725699E0,6.041450801E0,7.312508937E0
1.463499008E1,-1.462004619E0,3.839644910E0,4.137334260E0,5.830768844E0
1.464497808E1,-6.586845309E-1,3.568990746E0,2.579779851E0,4.452732233E0
1.465496708E1,2.576905579E-1,3.171772722E0,1.248718511E0,3.418456456E0
1.466495508E1,1.033796717E0,2.646506522E0,-4.342434704E-2,2.841587250E0
1.467494208E1,1.573609108E0,2.058732564E0,-1.396226805E0,2.943480030E0
1.468493008E1,1.818748362E0,1.390658209E0,-2.741260067E0,3.571593848E0
1.469491808E1,1.669150566E0,8.650370836E-1,-3.905123200E0,4.334090443E0
1.470490608E1,1.367424882E0,4.655465394E-1,-4.948475803E0,5.154997299E0
1.471489408E1,1.028446515E0,7.740090922E-2,-5.908141301E0,5.997485037E0
1.472488208E1,6.919283639E-1,-3.390088458E-1,-6.845469266E0,6.888696635E0
1.473487008E1,3.112372027E-1,-7.209846403E-1,-7.757498083E0,7.797144602E0
1.474485808E1,-3.022250354E-2,-1.119738874E0,-8.483505335E0,8.557136864E0
1.475484608E1,-2.970046413E-1,-1.423764121E0,-9.026317567E0,9.142741648E0
1.476483408E1,-5.415534724E-1,-1.635132927E0,-9.491624955E0,9.646651447E0
1.477482108E1,-7.113254055E-1,-1.750048694E0,-9.851674275E0,1.003115847E1
1.478480908E1,-7.219447531E-1,-1.689854971E0,-1.016968095E1,1.033437103E1
1.479479708E1,-4.068391056E-1,-1.525176767E0,-1.055480547E1,1.067218818E1
1.480478508E1,4.245568268E-2,-1.370408863E0,-1.077462452E1,1.086150802E1
1.481477308E1,4.350819612E-1,-1.170922476E0,-1.091650604E1,1.098774135E1
1.482476108E1,7.593654715E-1,-9.913571146E-1,-1.112063000E1,1.119052440E1
1.483474908E1,9.796408293E-1,-9.424973421E-1,-1.138310215E1,1.146398762E1
1.484473708E1,1.106901531E0,-9.801330918E-1,-1.159365805E1,1.168754888E1
1.485472508E1,1.227969081E0,-1.030827428E0,-1.169931139E1,1.180865785E1
1.486471308E1,1.300549400E0,-1.107861717E0,-1.171909486E1,1.184297136E1
1.487470008E1,1.289107861E0,-1.165304764E0,-1.156461844E1,1.169444885E1
1.488468808E1,1.318348470E0,-1.212051645E0,-1.109347553E1,1.123709532E1
1.489467608E1,1.337142152E0,-1.403898352E0,-1.042859565E1,1.060728462E1
1.490466408E1,1.297279637E0,-1.606854915E0,-9.564169021E0,9.784592287E0
1.491465208E1,9.985472895E-1,-1.836586463E0,-8.406091123E0,8.662131060E0
1.492464008E1,6.804162195E-1,-2.071147519E0,-7.077853403E0,7.405985895E0
1.493462808E1,3.997025423E-1,-2.370616323E0,-5.952535701E0,6.419677962E0
1.494461608E1,-9.588636987E-2,-2.653547739E0,-5.404368004E0,6.021436982E0
1.495460408E1,-5.521996441E-1,-2.704890971E0,-5.377697099E0,6.044914036E0
1.496459208E1,-9.569173799E-1,-2.386051510E0,-5.243873629E0,5.840132132E0
1.497457908E1,-1.307274867E0,-1.738917496E0,-4.675563444E0,5.156907519E0
1.498456708E1,-1.942122273E0,-7.981599931E-1,-3.110163242E0,3.752600923E0
1.499455508E1,-2.802535379E0,-5.752169162E-2,-2.767896473E-1,2.816758031E0
1.500454308E1,-3.314890341E0,2.508768341E-1,2.935442591E0,4.434891246E0
1.501453108E1,-2.252961573E0,8.077044033E-1,5.680599242E0,6.164205545E0
1.502451908E1,-1.614332553E-1,2.689415437E0,6.804174474E0,7.318183270E0
1.503450708E1,2.129720832E0,5.795925046E0,8.251441625E0,1.030605389E1
1.504449508E1,4.005637422E0,7.349481128E0,1.421995484E1,1.650051877E1
1.505448308E1,6.190432009E0,6.209828977E0,2.480989038E1,2.631376227E1
1.506447108E1,7.814037150E0,3.071504375E0,3.426138122E1,3.527514080E1
1.507445808E1,6.900633067E0,5.381438148E-1,3.648592868E1,3.713665746E1
1.508444608E1,3.130554529E0,3.251510909E-1,3.120864816E1,3.136695418E1
1.509443408E1,2.228178186E-1,8.033360946E-1,2.489606664E1,2.491002069E1
1.510442208E1,-3.277600089E-1,1.013362526E0,2.065182540E1,2.067927036E1
1.511441008E1,-7.585347283E-1,1.669489119E0,1.699282496E1,1.709147942E1
1.512439808E1,-1.799855131E0,2.251308419E0,1.365179142E1,1.395275160E1
1.513438608E1,-2.773381746E0,2.296581363E0,1.096572790E1,1.154179885E1
1.514437408E1,-2.861953907E0,2.427729148E0,9.160093090E0,9.899088564E0
1.515436208E1,-1.825797765E0,3.041372504E0,8.173316976E0,8.909915521E0
1.516435008E1,-4.279974747E-1,3.497280493E0,7.260533869E0,8.070285295E0
1.517433708E1,6.531823010E-1,3.367155679E0,6.229131805E0,7.111010303E0
1.518432508E1,1.352364355E0,2.892620507E0,5.490624960E0,6.351622249E0
1.519431308E1,1.624120865E0,2.132494166E0,4.958058220E0,5.636279026E0
1.520430108E1,1.669598755E0,1.057119580E0,4.174709662E0,4.618794493E0
1.521428908E1,1.524967583E0,-6.764146775E-2,2.980225831E0,3.348409697E0
1.522427708E1,1.186668370E0,-8.410594064E-1,1.072216798E0,1.806989653E0
1.523426508E1,8.429616518E-1,-1.329061885E0,-9.017722160E-1,1.813886151E0
1.524425308E1,5.645453091E-1,-1.648859412E0,-2.675880595E0,3.193397207E0
1.525424108E1,3.679564006E-1,-1.797623103E0,-4.249222485E0,4.628469776E0
1.526422908E1,2.612949644E-1,-1.819561856E0,-5.615993357E0,5.909184528E0
1.527421608E1,3.372499668E-1,-1.709439197E0,-6.840904929E0,7.059313009E0
1.528420408E1,5.576100728E-1,-1.572467586E0,-8.009014894E0,8.180947554E0
1.529419208E1,7.760024080E-1,-1.464549181E0,-9.213962318E0,9.361847341E0
1.530418008E1,1.037757841E0,-1.269955890E0,-1.031762837E1,1.044716155E1
1.531416808E1,1.256035132E0,-1.168268717E0,-1.131308759E1,1.144239603E1
1.532415608E1,1.346446973E0,-1.156418458E0,-1.215944165E1,1.228829705E1
1.533414408E1,1.329595444E0,-1.126828330E0,-1.283564174E1,1.295342677E1
1.534413208E1,1.216970761E0,-1.234878444E0,-1.314794270E1,1.326176232E1
1.535412008E1,1.083956545E0,-1.443423483E0,-1.306810598E1,1.319218811E1
1.536410808E1,9.221338288E-1,-1.745363759E0,-1.271135566E1,1.286371596E1
1.537409508E1,8.499515596E-1,-1.997227603E0,-1.221468381E1,1.240604032E1
1.538408308E1,8.827439144E-1,-2.052242301E0,-1.172719676E1,1.193809362E1
1.539407108E1,1.015891154E0,-2.138669119E0,-1.133264770E1,1.157734185E1
1.540405908E1,1.185452661E0,-2.244853970E0,-1.107752082E1,1.136468807E1
1.541404708E1,1.193546084E0,-2.305104850E0,-1.095338794E1,1.125676543E1
1.542403508E1,1.044078827E0,-2.397577688E0,-1.094853943E1,1.125650900E1
1.543402308E1,8.004458159E-1,-2.597878153E0,-1.095654076E1,1.128873198E1
1.544401108E1,4.968707680E-1,-2.822779901E0,-1.077983673E1,1.115436448E1
1.545399908E1,2.562620832E-1,-2.925453500E0,-1.041431675E1,1.082044093E1
1.546398708E1,1.061631437E-1,-2.983193000E0,-9.955747697E0,1.039363379E1
1.547397408E1,-8.642140880E-2,-3.030403419E0,-9.558516517E0,1.002776404E1
1.548396208E1,-1.860681231E-1,-3.103502386E0,-9.377967362E0,9.879909931E0
1.549395008E1,-1.958264682E-1,-3.136460217E0,-9.341894719E0,9.856303954E0
1.550393808E1,-2.173261685E-1,-3.100990714E0,-9.372147043E0,9.874234870E0
1.551392608E1,-1.930765226E-1,-3.109493443E0,-9.463536100E0,9.963169352E0
1.552391408E1,8.316480204E-2,-3.114121222E0,-9.551528510E0,1.004670913E1
1.553390208E1,5.119504814E-1,-3.078812225E0,-9.417523191E0,9.921235864E0
1.554389008E1,7.764412415E-1,-3.128864684E0,-8.970960807E0,9.532617322E0
1.555387808E1,8.299651918E-1,-3.395962279E0,-8.537775097E0,9.225779405E0
1.556386608E1,7.918064817E-1,-3.691559203E0,-8.434540751E0,9.240998027E0
1.557385308E1,7.968586953E-1,-3.799107918E0,-8.383249560E0,9.238348225E0
1.558384108E1,8.442869233E-1,-3.715357371E0,-8.337462353E0,9.166786748E0
1.559382908E1,8.287531371E-1,-3.377578633E0,-7.889977863E0,8.622448600E0
1.560381708E1,8.114266676E-1,-2.444650990E0,-6.929876162E0,7.393099169E0
1.561380508E1,9.672771842E-1,-5.128537300E-1,-5.491188632E0,5.599267514E0
1.562379308E1,1.163368458E0,1.384303163E0,-4.055229412E0,4.440113399E0
1.563378108E1,1.081590762E0,3.211159859E0,-1.007835445E0,3.535126377E0
1.564376908E1,1.344020671E0,5.586322830E0,5.007015787E0,7.621259831E0
1.565375658E1,3.473140848E0,8.755116688E0,1.290734030E1,1.597855466E1
1.566374458E1,7.682546718E0,1.044158349E1,2.287451813E1,2.629242799E1
1.567373158E1,1.161346842E1,8.826924005E0,3.661675663E1,3.941540437E1
1.568371958E1,1.231703815E1,4.835200325E0,4.764157883E1,4.944500606E1
1.569370758E1,9.283154760E0,1.586287041E0,4.950482918E1,5.039267190E1
1.570369558E1,4.612043386E0,9.672186390E-1,4.460010517E1,4.484836493E1
1.571368358E1,1.758953565E0,1.544523304E0,3.769219758E1,3.776481468E1
1.572367158E1,4.906357723E-1,3.027947004E0,3.167972090E1,3.182787933E1
1.573365958E1,-8.098133478E-1,4.647631295E0,2.657688854E1,2.699235594E1
1.574364758E1,-2.253104099E0,5.632084894E0,2.316026688E1,2.394148743E1
1.575363558E1,-3.038775463E0,5.135079750E0,2.141548346E1,2.223119727E1
1.576362358E1,-3.114525265E0,4.328022487E0,2.076961639E1,2.144315768E1
1.577361058E1,-2.519414074E0,4.069786932E0,1.965178546E1,2.022630181E1
1.578359858E1,-1.508494369E0,4.021459402E0,1.711444821E1,1.764517012E1
1.579358658E1,-5.032608611E-1,3.925083548E0,1.385848465E1,1.441239568E1
1.580357458E1,-4.579449764E-2,3.971031845E0,1.049212682E1,1.121855233E1
1.581356258E1,2.734583607E-1,3.936712198E0,6.673531889E0,7.752967837E0
1.582355058E1,5.850140722E-1,3.541805578E0,2.638992850E0,4.455436172E0
1.583353858E1,-1.017543431E-2,2.700476030E0,2.243810534E-2,2.700588417E0
1.584352658E1,-1.139416947E0,1.803385972E0,-6.005692738E-1,2.216112677E0
1.585351458E1,-2.035424539E0,7.959390745E-1,-6.010200942E-1,2.266648896E0
1.586350258E1,-2.824142010E0,-4.769190815E-1,-3.255665356E-1,2.882572371E0
1.587349058E1,-3.264533828E0,-1.677631952E0,-6.232196331E-2,3.670900994E0
1.588347758E1,-3.010426700E0,-2.543832339E0,-5.776592982E-1,3.983395806E0
1.589346558E1,-2.495740452E0,-2.796054910E0,-2.105759527E0,4.298937851E0
1.590345358E1,-1.656728594E0,-2.206809646E0,-4.740186871E0,5.484900184E0
1.591344158E1,-3.579632166E-1,-1.736290342E0,-8.445114271E0,8.629182862E0
1.592342958E1,9.460832202E-1,-1.500228598E0,-1.255242366E1,1.267710926E1
1.593341758E1,1.788826844E0,-1.552436633E0,-1.652814322E1,1.669699013E1
1.594340558E1,2.042427750E0,-2.131858867E0,-1.960842134E1,1.982943572E1
1.595339358E1,1.763173209E0,-2.930004388E0,-2.118297244E1,2.145721386E1
1.596338158E1,1.078455850E0,-3.913707497E0,-2.103330009E1,2.142148188E1
1.597336958E1,1.620810172E-1,-5.164354420E0,-1.897174727E1,1.966275721E1
1.598335658E1,-5.776937968E-1,-6.588040334E0,-1.547577538E1,1.682960574E1
1.599334458E1,-1.230267768E0,-7.507476404E0,-1.137249531E1,1.368244898E1
1.600333258E1,-1.834149197E0,-8.110648273E0,-7.990376310E0,1.153225183E1
1.601332058E1,-1.878893553E0,-8.429700426E0,-5.868400699E0,1.044165777E1
1.602330858E1,-8.603927864E-1,-8.329518911E0,-5.291788053E0,9.905765080E0
1.603329658E1,4.721556473E-1,-7.470256537E0,-6.442034190E0,9.875599637E0
1.604328458E1,5.805256033E-1,-6.498269202E0,-8.831278426E0,1.097979923E1
1.605327258E1,5.468618672E-1,-6.014406844E0,-1.179487478E1,1.325108367E1
1.606326058E1,7.922794484E-1,-5.655325238E0,-1.380833308E1,1.494257249E1
1.607324858E1,1.228678056E0,-5.453457134E0,-1.456357816E1,1.559960427E1
1.608323558E1,1.790627640E0,-5.199014960E0,-1.393990128E1,1.498522444E1
1.609322358E1,2.233544870E0,-5.034738606E0,-1.241294886E1,1.358008155E1
1.610321158E1,2.437241983E0,-5.028004367E0,-1.089133729E1,1.224100503E1
1.611319958E1,2.486491034E0,-5.100627370E0,-9.695190505E0,1.123368845E1
1.612318758E1,2.372077981E0,-5.164715778E0,-8.780225217E0,1.045912988E1
1.613317558E1,2.059565062E0,-5.208235434E0,-8.429154296E0,1.012018610E1
1.614316358E1,2.019223513E0,-5.109257861E0,-8.721722655E0,1.030777500E1
1.615315158E1,2.050844817E0,-4.754557281E0,-9.260227243E0,1.060959886E1
1.616313958E1,1.865579443E0,-4.379948393E0,-9.894985771E0,1.098066838E1
1.617312758E1,1.961036700E0,-4.124529735E0,-1.055151816E1,1.149747564E1
1.618311558E1,2.223134634E0,-4.196414527E0,-1.021376544E1,1.126380162E1
1.619310258E1,2.256622661E0,-4.406693850E0,-9.484059827E0,1.069853669E1
1.620309058E1,2.179829862E0,-4.429098919E0,-9.177666312E0,1.042104286E1
1.621307858E1,2.263599705E0,-4.295133946E0,-9.025652153E0,1.024863191E1
1.622306658E1,2.282382570E0,-4.003701409E0,-8.770309508E0,9.907432767E0
1.623305458E1,2.265299929E0,-3.651891984E0,-8.537062322E0,9.557684444E0
1.624304258E1,2.398250849E0,-3.340027522E0,-8.153620046E0,9.131752889E0
1.625303058E1,2.394580698E0,-3.215772727E0,-7.814134213E0,8.782704848E0
1.626301858E1,2.138566938E0,-3.334572069E0,-7.477290153E0,8.461838303E0
1.627300658E1,2.002462908E0,-3.385066577E0,-6.992866462E0,8.023011579E0
1.628299458E1,1.941033814E0,-3.201552299E0,-6.519665918E0,7.518217413E0
1.629298158E1,1.777221729E0,-3.022520203E0,-6.146347511E0,7.076138295E0
1.630296958E1,1.441497556E0,-2.911296806E0,-5.634861737E0,6.504247158E0
1.631295758E1,1.054478977E0,-2.793930909E0,-4.709940979E0,5.576873664E0
1.632294558E1,6.157940347E-1,-2.558760573E0,-3.583346245E0,4.445990134E0
1.633293358E1,1.738447380E-1,-1.983190485E0,-2.130678606E0,2.916000311E0
1.634292158E1,-2.364812815E-1,-1.020372168E0,-5.353769124E-1,1.176312542E0
1.635290958E1,-7.630921213E-1,3.329886988E-1,4.889400798E-1,9.655327341E-1
1.636289758E1,-1.542469323E0,2.173917012E0,5.011075509E-1,2.712238110E0
1.637288558E1,-1.982142664E0,4.312964737E0,-1.006110517E0,4.852093645E0
1.638287358E1,-2.034085527E0,6.840451770E0,-2.359176684E0,7.516315518E0
1.639286058E1,-7.787075492E-1,9.774284037E0,9.780111372E-1,9.853908853E0
1.640284858E1,1.960546265E0,1.145791260E1,1.181689539E1,1.657608275E1
1.641283658E1,5.845481368E0,1.101464454E1,2.778356908E1,3.045355082E1
1.642282458E1,8.398766901E0,7.898672673E0,4.319276456E1,4.470506935E1
1.643281258E1,7.246795835E0,4.713867092E0,5.174866778E1,5.246580991E1
1.644280058E1,2.691085110E0,3.877492182E0,5.100610881E1,5.122401801E1
1.645278858E1,-1.515693461E0,4.577747127E0,4.479260954E1,4.505142578E1
1.646277658E1,-3.354428629E0,5.259350624E0,3.879591800E1,3.929422622E1
1.647276458E1,-4.027694873E0,4.969379014E0,3.447830590E1,3.506665983E1
1.648275258E1,-4.577077621E0,4.078517995E0,3.046595354E1,3.107665158E1
1.649274058E1,-4.692326826E0,3.199465427E0,2.603828982E1,2.665046053E1
1.650272758E1,-3.549004670E0,3.154690958E0,2.172386328E1,2.223676561E1
1.651271558E1,-7.797637756E-1,4.106366821E0,1.806369573E1,1.854096500E1
1.652270358E1,1.827726323E0,5.349569653E0,1.478007483E1,1.582431961E1
