"Time (s)","Linear Acceleration x (m/s^2)","Linear Acceleration y (m/s^2)","Linear Acceleration z (m/s^2)","Absolute acceleration (m/s^2)"
5.549083333E-3,-1.136683520E0,-1.320108336E-1,-1.317512172E-1,1.151883097E0
1.553708333E-2,-7.963603663E-1,-2.522167236E-2,4.191792887E-1,9.002984183E-1
2.552508333E-2,-2.701574430E-1,1.275803983E-1,8.666941845E-1,9.167445727E-1
3.551308333E-2,-3.061648893E-1,1.246813488E-1,8.498577118E-1,9.118884298E-1
4.550108333E-2,5.830147630E-1,2.190782136E-1,1.030421485E0,1.204022390E0
5.548908333E-2,7.518782580E-1,2.937304929E-1,7.056782377E-1,1.072184822E0
6.547708333E-2,6.665723518E-1,3.503344640E-1,5.371673298E-1,9.249873929E-1
7.546508333E-2,3.612015143E-1,1.365649375E-1,3.955840194E-1,5.528139221E-1
8.545208333E-2,-1.696715802E-2,1.760830522E-2,1.444461071E-1,1.465012448E-1
9.544008333E-2,-3.720916611E-1,1.185373870E-1,-1.614018631E-1,4.225563605E-1
1.054280833E-1,-5.006081986E-1,-1.750100881E-2,-4.676158690E-1,6.852586773E-1
1.154160833E-1,-4.371647394E-1,-7.280660570E-2,-7.397511327E-1,8.623488561E-1
1.254040833E-1,-2.549850878E-1,1.612056890E-1,-7.221428275E-1,7.826205546E-1
1.353920833E-1,-4.850879341E-2,2.208469963E-1,-4.708856320E-1,5.223598159E-1
1.453800833E-1,1.775805241E-1,6.936318040E-2,-2.908931315E-1,3.478000967E-1
1.553680833E-1,3.368694958E-1,-6.056984514E-2,-1.570369166E-1,3.765771588E-1
1.653560833E-1,4.114013225E-1,-3.582092017E-2,6.913630843E-2,4.187051655E-1
1.753440833E-1,6.053104886E-1,1.753346086E-1,2.034643936E-1,6.622241102E-1
1.853323750E-1,8.416464669E-1,3.260065386E-1,2.915164447E-1,9.484887326E-1
1.953203750E-1,8.968362889E-1,5.997854546E-1,3.213395834E-2,1.079393585E0
2.053083750E-1,7.111032844E-1,7.363401595E-1,-3.293233716E-1,1.075322554E0
2.152963750E-1,5.125242394E-1,7.315027580E-1,-3.681231558E-1,9.660704109E-1
2.252843750E-1,5.119822025E-1,5.254565263E-1,-8.771969533E-1,1.143549226E0
2.352723750E-1,7.328891328E-1,2.157692742E-1,-1.385638082E0,1.582300779E0
2.452603750E-1,8.305920133E-1,2.339666864E-1,-1.258752918E0,1.526133156E0
2.552483750E-1,7.748312107E-1,1.528424165E-1,-1.155830812E0,1.399881808E0
2.652363750E-1,1.035838638E0,1.876997155E-1,-1.229036198E0,1.618246843E0
2.752243750E-1,1.590317235E0,1.493709245E-1,-1.355710863E0,2.095082940E0
2.852123750E-1,1.905484205E0,2.159835747E-1,-1.492543895E0,2.430063011E0
2.952003750E-1,2.000647055E0,4.792658615E-1,-1.369516724E0,2.471408599E0
3.051883750E-1,1.138708411E0,5.417395601E-1,-7.760904086E-1,1.480694066E0
3.151763750E-1,3.599809080E-2,3.684696034E-1,4.501133984E-1,5.828102458E-1
3.251643750E-1,2.881583887E-1,1.384693757E-1,9.299400079E-1,9.833602816E-1
3.351523750E-1,1.496495444E-1,2.139130756E-1,8.612825865E-1,8.999786018E-1
3.451403750E-1,3.408189976E-1,3.108362299E-1,5.725751442E-1,7.352680101E-1
3.551283750E-1,-2.866356276E-1,7.176015875E-1,-2.392458451E-1,8.089194000E-1
3.651163750E-1,-1.134455146E0,6.733750024E-1,-1.210794640E0,1.790655196E0
3.751033750E-1,-1.524680339E0,1.869293448E-1,-7.455819762E-1,1.707479194E0
3.850913750E-1,-8.168721065E-1,6.614469749E-1,1.397431331E0,1.748601288E0
3.950793750E-1,1.091008214E-1,1.385601245E0,3.268732129E0,3.551957704E0
4.050673750E-1,9.886683456E-1,1.068264957E0,3.824911680E0,4.092505892E0
4.150553750E-1,1.435493051E0,6.043293259E-1,3.667235078E0,3.984277519E0
4.250433750E-1,1.522806745E0,1.047230184E0,3.989870405E0,4.397123751E0
4.350313750E-1,8.830440228E-1,1.368295240E0,3.446678689E0,3.812032606E0
4.450193750E-1,1.598779325E0,1.571298289E0,3.629743901E0,4.266159213E0
4.550073750E-1,1.840658756E0,1.965079904E0,3.233548263E0,4.207778280E0
4.649953750E-1,1.174057315E0,1.266632041E0,2.931219732E0,3.402178187E0
4.749833750E-1,1.106144463E0,6.614636394E-1,2.080282624E0,2.447175007E0
4.849713750E-1,1.758259209E0,3.447281536E-1,2.157047794E0,2.804134114E0
4.949593750E-1,3.991806418E0,-1.622959024E-1,2.607632478E0,4.770807644E0
5.049473750E-1,5.234254375E0,-9.426120937E-1,3.774225676E0,6.521557779E0
5.149353750E-1,4.649624903E0,-1.442760847E0,4.825483130E0,6.854623114E0
5.249233750E-1,3.886933389E0,-2.045754231E0,4.869415015E0,6.557786527E0
5.349113750E-1,3.305679223E0,-2.529462807E0,4.364069402E0,6.030820753E0
5.448993750E-1,2.972304315E0,-2.370303497E0,3.953610651E0,5.484885485E0
5.548873750E-1,2.410538919E0,-1.137357412E0,4.087865061E0,4.880053332E0
5.648753750E-1,1.473002647E0,-4.628568202E-2,4.316212866E0,4.560874112E0
5.748633750E-1,1.128368195E0,-2.060851157E-3,4.081516739E0,4.234618982E0
5.848513750E-1,1.000633722E0,-8.574248859E-1,4.061534464E0,4.269954038E0
5.948393750E-1,1.244684224E0,-2.031715943E0,4.066079505E0,4.712760447E0
6.048273750E-1,2.097226978E0,-2.326389299E0,3.869973832E0,4.978669062E0
6.148153750E-1,2.146126950E0,-2.795996438E0,3.776462821E0,5.165765035E0
6.248033750E-1,1.634078966E0,-3.012535790E0,3.239275610E0,4.715770609E0
6.347913750E-1,1.442339702E0,-2.671546639E0,2.577927454E0,3.982865201E0
6.447783750E-1,1.276183760E0,-2.441241771E0,1.340357244E0,3.063472526E0
6.547663750E-1,7.578156669E-1,-2.463357110E0,3.267897731E-1,2.597923092E0
6.647543750E-1,5.217219096E-1,-1.959428278E0,-2.112259877E-1,2.038668522E0
6.747423750E-1,7.490224779E-2,-8.911256057E-1,-8.855994022E-1,1.258571211E0
6.847303750E-1,-1.139734159E-1,-6.434626937E-2,-2.264575751E0,2.268354848E0
6.947183750E-1,2.301687006E-1,4.970256096E-1,-2.418420088E0,2.479670908E0
7.047063750E-1,6.805797954E-1,3.777798325E-1,-1.594218789E0,1.774102592E0
7.146943750E-1,1.108009140E0,8.317664266E-3,-3.522234070E-1,1.162675693E0
7.246823750E-1,1.622652630E0,-2.055226135E-1,1.542732301E0,2.248391437E0
7.346703750E-1,1.773512109E0,-5.614782983E-1,3.803590978E0,4.234135969E0
7.446583750E-1,1.012459424E0,-1.022515465E0,3.182221404E0,3.492441127E0
7.546463750E-1,6.432912972E-1,-1.248706816E0,2.333966998E0,2.724058435E0
7.646343750E-1,6.592162621E-1,-1.338698389E0,1.798234575E0,2.336734269E0
7.746223750E-1,9.689182053E-1,-1.416922440E0,1.886734523E0,2.550733003E0
7.846103750E-1,1.477752340E0,-1.470811549E0,2.574992736E0,3.313250093E0
7.945983750E-1,1.405858485E0,-1.477450477E0,3.106768933E0,3.716357248E0
8.045863750E-1,8.611033693E-1,-1.490489184E0,2.674071466E0,3.180206790E0
8.145743750E-1,1.309857436E-1,-1.657697917E0,1.350049296E0,2.141904001E0
8.245623750E-1,-9.014875297E-1,-1.660342028E0,2.919321817E-1,1.911711226E0
8.345503750E-1,-1.123937832E0,-1.811448113E0,-9.490323365E-3,2.131823301E0
8.445383750E-1,-8.022072896E-2,-2.374885814E0,-6.941405118E-2,2.377253942E0
8.545263750E-1,1.228304127E-1,-2.413247641E0,2.047653991E-1,2.425032032E0
8.645143750E-1,-7.990341519E-1,-1.704623576E0,-1.005048662E-2,1.882630640E0
8.745023750E-1,-8.747303054E-1,-1.810661078E0,-3.907600665E-1,2.048497029E0
8.844903750E-1,-1.180891686E0,-1.943087064E0,-8.515253377E-1,2.428000806E0
8.944773750E-1,-7.445952585E-1,-2.562984894E0,-8.754923438E-1,2.808878871E0
9.044653750E-1,4.312491113E-1,-4.151023176E0,-5.792035478E-1,4.213365158E0
9.144533750E-1,3.979588661E-1,-5.232331225E0,-1.835189563E-1,5.250651437E0
9.244413750E-1,-3.147199506E-1,-5.379851798E0,1.320780766E-1,5.390667736E0
9.344293750E-1,-1.189071941E0,-4.762996860E0,3.037008727E-1,4.918563346E0
9.444173750E-1,-2.170827635E0,-4.172295347E0,2.588293397E-1,4.710364499E0
9.544053750E-1,-2.426775759E0,-4.430013716E0,-8.206742585E-2,5.051831071E0
9.643933750E-1,-2.152760324E0,-4.630237582E0,-1.655311668E-1,5.108901804E0
9.743813750E-1,-1.976611783E0,-4.489512058E0,-1.793966875E-1,4.908655196E0
9.843693750E-1,-1.516857203E0,-4.204112386E0,-3.845661110E-1,4.485901004E0
9.943573750E-1,-1.054112649E0,-4.014543316E0,-8.628350222E-1,4.239362663E0
1.004345375E0,-1.005994450E0,-3.926233402E0,-1.778270427E0,4.426011667E0
1.014333375E0,-6.861953151E-1,-3.794650000E0,-2.620654228E0,4.662409379E0
1.024321375E0,-5.341022193E-1,-3.507402023E0,-3.115111156E0,4.721340026E0
1.034309375E0,-5.380730635E-1,-2.937010229E0,-3.169765080E0,4.354648364E0
1.044297375E0,-2.158908963E-1,-2.274882054E0,-2.223754585E0,3.188539115E0
1.054285375E0,-1.839288461E-1,-1.982775040E0,-1.112416552E0,2.280942188E0
1.064273375E0,-2.785952675E-1,-1.971933133E0,-8.337172039E-1,2.158985868E0
1.074261375E0,1.351189211E-1,-1.822715113E0,-8.539903776E-1,2.017386198E0
1.084249375E0,4.365899581E-1,-1.582625515E0,-1.181014624E0,2.022402001E0
1.094237375E0,4.584380794E-1,-1.309020846E0,-1.724540216E0,2.213083822E0
1.104225375E0,8.297926989E-1,-1.061321681E0,-2.092799027E0,2.488928967E0
1.114213375E0,9.473813751E-1,-7.037398857E-1,-2.466649092E0,2.734435781E0
1.124201375E0,8.081562468E-1,-3.921862024E-1,-2.899606175E0,3.035562964E0
1.134189375E0,5.223917082E-1,-4.237781239E-1,-2.876844134E0,2.954439569E0
1.144177375E0,1.531108037E-1,-7.173106885E-1,-2.194476260E0,2.313807166E0
1.154164375E0,1.992470893E-1,-6.882611364E-1,-2.164194846E0,2.279724134E0
1.164152375E0,-2.044151509E-1,-9.795121175E-1,-5.193532026E-1,1.127367416E0
1.174140375E0,-2.779760474E-1,-1.089277219E0,-3.525873962E-1,1.178182250E0
1.184128375E0,-2.455000269E-1,-1.064097939E0,-3.150058794E-1,1.136575291E0
1.194116833E0,-5.592478779E-1,-1.108841418E0,-5.005356932E-1,1.338963577E0
1.204104833E0,-8.230467662E-1,-1.095586950E0,-6.830895665E-1,1.531119884E0
1.214092833E0,-6.890779924E-1,-6.387732267E-1,-9.855625239E-1,1.361687631E0
1.224080833E0,-2.047311929E-1,-1.163566679E-1,-1.023209237E0,1.049957560E0
1.234068833E0,-2.528920770E-3,-2.373349750E-1,-4.840713957E-1,5.391283724E-1
1.244056833E0,-3.686669469E-3,-5.764980412E-1,3.476907916E-1,6.732402763E-1
1.254044833E0,-1.561802995E-1,-6.157521540E-1,1.173931599E0,1.334787774E0
1.264032833E0,-2.008579972E-1,-6.279909611E-1,1.508757347E0,1.646531298E0
1.274020833E0,-2.841685411E-1,-4.359578741E-1,1.075031794E0,1.194363590E0
1.284008833E0,-4.201952425E-1,-1.127512747E-1,3.139254601E-1,5.364942556E-1
1.293996833E0,-3.749339926E-1,-3.268827438E-2,-2.791323343E-1,4.685711068E-1
1.303984833E0,-1.374873358E-1,1.517703295E-2,-3.120460188E-1,3.413295002E-1
1.313972833E0,-2.091116345E-1,-5.650222957E-2,7.652017236E-2,2.297292197E-1
1.323960833E0,-6.251688024E-1,-2.473956943E-1,4.568052444E-1,8.128417388E-1
1.333948833E0,-6.245861274E-1,-3.202373832E-1,6.594255924E-1,9.630690132E-1
1.343936833E0,-7.180573779E-1,-2.825643575E-1,6.702753934E-1,1.022114532E0
1.353924833E0,-6.010066456E-1,-2.290453774E-1,1.993694423E-1,6.733639042E-1
1.363912833E0,-3.450392255E-1,-6.026725173E-2,-4.117632651E-1,5.405859740E-1
1.373900833E0,-4.710952547E-1,-5.986028552E-2,-8.285792555E-1,9.550170550E-1
1.383888833E0,-8.567340374E-1,-1.251409400E-1,-9.898119879E-1,1.315059404E0
1.393875833E0,-1.149258834E0,-1.374499136E-1,-7.834274948E-1,1.397657679E0
1.403863833E0,-1.447919992E0,-7.225053549E-2,-4.431100421E-1,1.515928413E0
1.413851833E0,-1.714786330E0,-1.643985611E-1,-3.591650753E-1,1.759692756E0
1.423839833E0,-1.785908060E0,-5.094597137E-1,-2.352443030E-1,1.871992703E0
1.433827833E0,-1.763554155E0,-7.348488271E-1,1.139154553E-2,1.910564268E0
1.443815833E0,-1.435012263E0,-6.783179462E-1,3.221570241E-1,1.619617418E0
1.453803833E0,-9.313731605E-1,-4.062049019E-1,5.323138484E-1,1.147090415E0
1.463791833E0,-4.726017898E-1,-2.697998857E-1,5.162074006E-1,7.500763364E-1
1.473779833E0,-2.525123003E-1,-2.278449440E-1,2.838298412E-1,4.429843779E-1
1.483767833E0,-1.141294634E-1,-1.723075050E-1,-4.768112004E-3,2.067320623E-1
1.493755833E0,-2.151629180E-2,-1.593746334E-1,-3.391268134E-2,1.643572163E-1
1.503743833E0,-1.028928691E-1,-2.377086121E-1,2.144713385E-1,3.362889856E-1
1.513731833E0,-4.741869700E-1,-4.045957482E-1,5.408032747E-1,8.252388647E-1
1.523719833E0,-7.633706680E-1,-5.681031936E-1,8.558255263E-1,1.279809887E0
1.533707833E0,-9.070738864E-1,-5.616911370E-1,9.048662701E-1,1.398950655E0
1.543695833E0,-1.053042608E0,-4.474640250E-1,5.883804604E-1,1.286590205E0
1.553683833E0,-7.978975993E-1,-4.077292711E-1,1.383290425E-1,9.066524480E-1
1.563671833E0,-3.955416271E-1,-3.012579060E-1,-1.534717230E-1,5.203489929E-1
1.573659833E0,1.370411932E-1,-1.585232788E-1,-1.934840736E-1,2.852122110E-1
1.583647833E0,2.574488121E-1,-2.895699066E-1,-1.357838957E-1,4.105701986E-1
1.593635833E0,-2.657273000E-1,-5.362130642E-1,-3.389009647E-1,6.877421843E-1
1.603623833E0,-7.070058480E-1,-7.770306408E-1,-4.697182354E-1,1.150768920E0
1.613611833E0,-1.066965414E0,-8.636167949E-1,-4.692568901E-1,1.450672669E0
1.623598833E0,-1.235293011E0,-8.630893761E-1,-3.599113262E-1,1.549325098E0
1.633586833E0,-1.295112074E0,-7.904739743E-1,-2.727471748E-1,1.541608060E0
1.643574833E0,-1.267614081E0,-7.993512172E-1,-1.078130087E-1,1.502475115E0
1.653562833E0,-9.514130303E-1,-9.518220431E-1,1.795867038E-1,1.357719905E0
1.663550833E0,-6.624006557E-1,-1.086855302E0,4.330950773E-1,1.344470313E0
1.673538833E0,-5.319612613E-1,-1.058609743E0,5.579050648E-1,1.309540160E0
1.683526833E0,-4.879785052E-1,-8.771092451E-1,4.267821309E-1,1.090681730E0
1.693514833E0,-5.164097142E-1,-6.041226268E-1,2.477000418E-1,8.324652857E-1
1.703502833E0,-7.473598221E-1,-3.606094837E-1,1.794943178E-1,8.490018336E-1
1.713490833E0,-9.477786934E-1,-3.897905982E-1,2.026954848E-1,1.044656222E0
1.723478833E0,-1.109721132E0,-4.802633965E-1,4.098579499E-1,1.276760533E0
1.733466833E0,-1.288876896E0,-6.034724164E-1,6.333537349E-1,1.557728976E0
1.743454833E0,-1.382775870E0,-7.255032223E-1,6.697631773E-1,1.699119403E0
1.753442833E0,-1.394698343E0,-7.579617012E-1,5.309280583E-1,1.673790313E0
1.763430833E0,-1.383735398E0,-7.421712953E-1,5.655470833E-1,1.668947389E0
1.773418833E0,-1.353450622E0,-6.139991587E-1,-1.453807846E-1,1.493304766E0
1.783406833E0,-1.345963847E0,-3.547751319E-1,-3.458344468E-1,1.434254348E0
1.793394833E0,-1.521922938E0,-1.427995312E-1,-5.437580189E-1,1.622440729E0
1.803382833E0,-1.591677589E0,9.677258849E-2,-6.648649648E-1,1.727671237E0
1.813370833E0,-1.661140465E0,3.994724178E-1,-6.557058862E-1,1.830004390E0
1.823358833E0,-1.714609159E0,4.789746702E-1,-6.396815917E-1,1.891690736E0
1.833346833E0,-1.728809415E0,3.537027526E-1,-5.428765512E-1,1.846240119E0
1.843333833E0,-1.755885824E0,3.099135393E-1,-4.116469055E-1,1.829927486E0
1.853321833E0,-1.756700341E0,3.237901515E-1,-3.718104100E-1,1.824576425E0
1.863309833E0,-2.089284412E0,9.053887188E-1,-2.091268373E-1,2.286607120E0
1.873297833E0,-2.133397561E0,8.958191657E-1,-2.492890227E-1,2.327234872E0
1.883285833E0,-1.971924655E0,7.719119883E-1,-1.118060723E-1,2.120574346E0
1.893273833E0,-1.739542271E0,7.143426418E-1,1.360199770E-1,1.885416176E0
1.903261833E0,-1.512946292E0,7.746572560E-1,3.750564918E-1,1.740622797E0
1.913249833E0,-1.297869621E0,7.947938973E-1,3.938202068E-1,1.572023297E0
1.923237833E0,-8.919193652E-1,7.582476300E-1,1.320508870E-1,1.178090429E0
1.933225833E0,-9.102144259E-1,7.709776032E-1,1.852348217E-1,1.207148999E0
1.943213833E0,-2.843003958E-1,6.773367834E-1,-2.203368267E-1,7.669159996E-1
1.953201833E0,-3.151172689E-1,5.083621913E-1,-5.922416693E-1,8.417132561E-1
1.963189833E0,-5.577074289E-1,3.109777325E-1,-8.187344447E-1,1.038301891E0
1.973177833E0,-8.572792903E-1,2.171661741E-1,-8.892296460E-1,1.254120525E0
1.983165833E0,-7.829836911E-1,2.808979011E-1,-1.123475829E0,1.397914529E0
1.993153833E0,-3.999314243E-1,4.660786361E-1,-1.192182367E0,1.341071675E0
2.003141833E0,-3.229592621E-2,5.584196198E-1,-1.050640572E0,1.190260942E0
2.013129833E0,5.596185914E-1,6.460752296E-1,-5.500414369E-1,1.016430889E0
2.023117833E0,1.080772736E0,5.889064175E-1,-3.586623609E-2,1.231327277E0
2.033105833E0,1.385298359E0,3.673741275E-1,3.805905890E-1,1.482856867E0
2.043093833E0,1.354799867E0,3.738002175E-1,4.225893849E-1,1.467580004E0
2.053081833E0,1.599059114E0,1.301023024E-1,7.651759958E-1,1.777473197E0
2.063068833E0,1.665101076E0,-4.202335417E-2,9.125047803E-1,1.899208396E0
2.073056833E0,1.791679554E0,-1.210245001E-1,7.844729769E-1,1.959632722E0
2.083044833E0,1.891709042E0,-2.279437619E-1,6.790751606E-1,2.022786329E0
2.093032833E0,1.756650055E0,-3.445366573E-1,3.015292168E-1,1.815336000E0
2.103020833E0,1.788211571E0,-4.532024825E-1,-1.389374453E-1,1.849972088E0
2.113008833E0,1.886657925E0,-4.081584567E-1,-2.831514180E-1,1.950960321E0
2.122996833E0,2.084958642E0,-1.508581638E-1,-1.592693835E-1,2.096467854E0
2.132984833E0,2.368289862E0,-7.840648413E-2,1.452653021E-1,2.374035900E0
2.142972833E0,2.246486513E0,-1.726975143E-1,3.892555779E-1,2.286492070E0
2.152960833E0,1.824353503E0,-2.837542659E-1,4.771854222E-1,1.906957817E0
2.162948833E0,1.377318371E0,-3.133405924E-1,2.891225946E-1,1.441797523E0
2.172936833E0,9.064412177E-1,-2.990874195E-1,2.516758561E-2,9.548415434E-1
2.182924833E0,5.938996473E-1,-3.585348916E-1,-2.808715886E-1,7.484336369E-1
2.192912000E0,5.690407947E-1,-4.553565967E-1,-5.480267787E-1,9.118609578E-1
2.202900000E0,8.453913161E-1,-2.730082530E-1,-5.838892141E-1,1.063083533E0
2.212888000E0,1.192624417E0,-6.020059347E-2,-4.692156672E-1,1.283020052E0
2.222876000E0,1.306146355E0,5.402008653E-2,-4.522122565E-1,1.383268735E0
2.232864000E0,1.204183485E0,1.071034491E-1,-3.982208213E-1,1.272834961E0
2.242852000E0,9.204838908E-1,6.237517297E-2,-6.236564201E-1,1.113610608E0
2.252840000E0,4.564608434E-1,3.411031723E-2,-1.127560109E0,1.216927202E0
2.262827000E0,-1.815580925E-1,1.581028640E-2,-1.113195255E0,1.128014619E0
2.272815000E0,-4.470307463E-1,-9.991195858E-2,-7.154705697E-1,8.495393009E-1
2.282803000E0,-2.714909005E-1,-3.233416700E-1,-4.943779904E-1,6.501282504E-1
2.292791000E0,-8.833476394E-2,-4.682058531E-1,-3.108628348E-1,5.689072450E-1
2.302779000E0,1.100320271E-1,-5.379455942E-1,-2.272321558E-1,5.942448670E-1
2.312767000E0,1.753784627E-1,-4.701968300E-1,-3.787229884E-1,6.287080134E-1
2.322755000E0,2.793361098E-2,-2.850605339E-1,-7.268743944E-1,7.812721548E-1
2.332743000E0,-2.129155406E-1,-1.075355583E-1,-1.092482663E0,1.118219698E0
2.342731000E0,-4.342823544E-1,-1.124144751E-1,-1.271720288E0,1.348521660E0
2.352719000E0,-4.120293134E-1,-3.135651255E-1,-1.278893067E0,1.379731394E0
2.362707000E0,-2.846488899E-1,-3.428859884E-1,-1.110279833E0,1.196376654E0
2.372695000E0,-3.210413754E-3,-3.529180562E-1,-8.600552559E-1,9.296539702E-1
2.382683000E0,2.294195992E-1,-6.436147213E-1,-4.296610075E-1,8.071442519E-1
2.392671000E0,3.080550018E-1,-5.901594758E-1,-1.423329234E-2,6.658743708E-1
2.402659000E0,6.664068756E-1,-3.585904402E-1,2.468577504E-2,7.571622118E-1
2.412647000E0,1.053617390E0,-2.267912757E-1,-7.977765620E-2,1.080698090E0
2.422635000E0,1.091765502E0,-2.002952027E-1,-6.782185435E-2,1.112056601E0
2.432623000E0,7.470581058E-1,-4.123286909E-1,-2.265193802E-1,8.828486803E-1
2.442611000E0,-2.567974323E-1,-7.172264886E-1,-5.392618024E-1,9.333606209E-1
2.452599000E0,-7.343275478E-1,-9.271234041E-1,-6.380037332E-1,1.343816772E0
2.462587000E0,-8.324675077E-1,-9.894465369E-1,-6.990542194E-1,1.469926326E0
2.472574000E0,-5.706420547E-1,-7.485932922E-1,-6.203460190E-1,1.127321363E0
2.482562000E0,-8.448700368E-2,-3.592815810E-1,-4.105949914E-1,5.520956034E-1
2.492550000E0,3.758426499E-1,-2.090414679E-1,-9.270526528E-2,4.399435180E-1
2.502538000E0,5.289976001E-1,-2.386172694E-1,3.505639672E-2,5.813825015E-1
2.512526000E0,3.138700578E-1,-3.554732895E-1,-4.678883493E-2,4.765132399E-1
2.522514000E0,-6.972629249E-2,-4.779771352E-1,-2.109459060E-1,5.270882971E-1
2.532502000E0,-4.053927237E-1,-4.978997684E-1,-4.135074896E-1,7.636988174E-1
2.542490000E0,-5.234781209E-1,-4.083748037E-1,-6.736887056E-1,9.458624611E-1
2.552478000E0,-4.103453153E-1,-1.832125622E-1,-8.972605044E-1,1.003507117E0
2.562466000E0,-2.349165666E-1,2.116107345E-3,-8.786014545E-1,9.094673095E-1
2.572454000E0,-5.552574456E-2,1.851795655E-1,-7.908230531E-1,8.141103618E-1
2.582442000E0,7.121294707E-2,3.374410611E-1,-7.767336023E-1,8.498546008E-1
2.592430000E0,1.073715439E-1,3.787253273E-1,-6.128630447E-1,7.283973047E-1
2.602418000E0,-1.582344264E-2,2.579920185E-1,-3.934620649E-1,4.707681589E-1
2.612406000E0,5.441097289E-2,2.451649815E-1,-4.687736177E-1,5.318036544E-1
2.622394000E0,2.844533005E-1,4.443047744E-1,-6.939276731E-1,8.716972113E-1
2.632382000E0,4.354792795E-1,6.603348345E-1,-8.931861645E-1,1.193090869E0
2.642370000E0,5.016028100E-1,7.037188357E-1,-9.593275291E-1,1.291175777E0
2.652358000E0,5.444821966E-1,5.687522346E-1,-8.842779315E-1,1.184013271E0
2.662346000E0,4.617628062E-1,3.574870706E-1,-6.631333119E-1,8.836105953E-1
2.672334000E0,1.639132422E-1,2.495878154E-1,-5.589289123E-1,6.336901116E-1
2.682321000E0,-1.820735246E-1,1.671064067E-1,-5.161442506E-1,5.722588636E-1
2.692309000E0,-4.592730618E-1,-5.054333210E-3,-4.113662392E-1,6.165869560E-1
2.702297000E0,-6.169198430E-1,-1.823939520E-1,-3.682792765E-1,7.412740869E-1
2.712285000E0,-6.179004210E-1,-2.584089249E-1,-4.498397487E-1,8.068035091E-1
2.722273000E0,-5.613385499E-1,-2.466297090E-1,-6.646816546E-1,9.042836296E-1
2.732261000E0,-5.498592961E-1,-2.513156676E-1,-9.488545811E-1,1.125091030E0
2.742249000E0,-4.055166847E-1,-2.180432564E-1,-9.420314652E-1,1.048527503E0
2.752237000E0,-2.997259355E-1,-1.906057817E-1,-7.750028265E-1,8.525230680E-1
2.762225000E0,-3.402085483E-1,-9.328881741E-2,-5.415732068E-1,6.463328849E-1
2.772213000E0,-4.102716404E-1,3.794199765E-2,-3.724173510E-1,5.553891406E-1
2.782201000E0,-4.304305011E-1,9.047396779E-2,-2.206657326E-1,4.920867004E-1
2.792189000E0,-4.235600227E-1,3.049322963E-2,-1.537952203E-1,4.516479820E-1
2.802177000E0,-3.825739646E-1,-5.739392996E-2,-9.018745422E-2,3.972287483E-1
2.812165000E0,-3.472702307E-1,-5.291145444E-3,-2.077047944E-2,3.479310595E-1
2.822153000E0,-2.166428483E-1,1.228061467E-1,-4.257065356E-2,2.526415127E-1
2.832141000E0,-3.642990768E-2,1.469077849E-1,2.139379263E-2,1.528617997E-1
2.842129000E0,1.195083171E-1,2.105722690E-1,1.941690749E-1,3.103619628E-1
2.852117000E0,3.189311153E-1,3.207437521E-1,3.501336122E-1,5.720027598E-1
2.862105000E0,4.253241277E-1,2.951955128E-1,4.526101595E-1,6.876750401E-1
2.872093000E0,4.098377770E-1,2.073621476E-1,6.294603664E-1,7.792216736E-1
2.882080000E0,3.173184532E-1,1.092856300E-1,8.037407219E-1,8.709956933E-1
2.892068000E0,3.482841378E-1,1.606639445E-1,8.146218055E-1,9.004018158E-1
2.902056000E0,2.116159970E-1,8.782050133E-2,9.187168622E-1,9.468550277E-1
2.912044000E0,1.131126326E-1,5.090936780E-2,9.509379441E-1,9.589938503E-1
2.922032000E0,-2.919339359E-2,-3.812092245E-2,8.549009353E-1,8.562482515E-1
2.932020000E0,-1.600096411E-1,-8.313892812E-2,6.430101192E-1,6.678152289E-1
2.942008000E0,-1.425937092E-1,1.510920525E-2,5.332917953E-1,5.522330965E-1
2.951996000E0,-3.901028395E-2,9.242021352E-2,5.577542067E-1,5.667036732E-1
2.961984000E0,7.594948411E-3,6.905707866E-2,5.883211112E-1,5.924088902E-1
2.971972000E0,-4.287763238E-2,9.046227336E-2,6.065977532E-1,6.148030159E-1
2.981960000E0,-1.914629835E-1,1.342918324E-1,5.778329605E-1,6.233645005E-1
2.991948000E0,-4.871175027E-1,1.416581547E-1,4.775251454E-1,6.966927291E-1
3.001936000E0,-7.742257315E-1,1.716836071E-1,3.248701322E-1,8.569955350E-1
3.011924000E0,-1.074311855E0,1.370946953E-1,1.823670548E-1,1.098270759E0
3.021912000E0,-1.354584104E0,1.005475509E-1,-8.477877975E-3,1.358337138E0
3.031900000E0,-1.392008623E0,1.383547702E-1,-3.730172753E-2,1.399364666E0
3.041888000E0,-1.143872087E0,2.202268991E-1,5.720272601E-2,1.166282723E0
3.051876000E0,-6.834898084E-1,2.501997265E-1,9.609723508E-2,7.341613583E-1
3.061864000E0,-2.307603657E-1,1.823699784E-1,9.443077862E-2,3.089115203E-1
3.071852000E0,5.249220908E-2,5.478694886E-2,2.159967309E-1,2.289358634E-1
3.081840000E0,9.627031267E-2,-3.306600451E-2,3.745597708E-1,3.881447612E-1
3.091828000E0,1.100445986E-2,-9.060874611E-2,4.814755243E-1,4.900507357E-1
3.101815000E0,-8.588916600E-2,-1.622362608E-1,5.020109457E-1,5.345208534E-1
3.111803000E0,-8.916769981E-2,-3.279223788E-1,5.276673585E-1,6.276279204E-1
3.121791000E0,-1.461341983E-1,-4.962005675E-1,4.843570322E-1,7.086409117E-1
3.131779000E0,-4.072527230E-2,-6.988858196E-1,4.150938392E-1,8.138813378E-1
3.141767000E0,2.731953639E-1,-8.767168969E-1,5.246004939E-1,1.057579265E0
3.151755000E0,6.384335035E-1,-8.853541115E-1,7.715898067E-1,1.336712411E0
3.161743000E0,9.166188812E-1,-8.361404362E-1,8.865612692E-1,1.524897336E0
3.171731000E0,1.106438797E0,-8.752050993E-1,8.686594337E-1,1.656731719E0
3.181719000E0,1.205248556E0,-9.416554892E-1,8.763836056E-1,1.762778309E0
3.191707333E0,1.075999362E0,-8.977434844E-1,9.469559902E-1,1.691284612E0
3.201695333E0,8.282347083E-1,-9.330767468E-1,8.999876457E-1,1.538370147E0
3.211683333E0,6.418962246E-1,-1.094003524E0,7.185181385E-1,1.457786949E0
3.221671333E0,5.253980541E-1,-1.161755796E0,6.369828093E-1,1.425295318E0
3.231659333E0,4.762674093E-1,-1.114381655E0,5.449809641E-1,1.328789437E0
3.241647333E0,4.861936426E-1,-9.261796635E-1,5.214985460E-1,1.168825804E0
3.251635333E0,5.049444938E-1,-8.409754989E-1,6.208778232E-1,1.160903959E0
3.261623333E0,5.783662266E-1,-9.211881879E-1,9.218679267E-1,1.425810522E0
3.271611333E0,6.708510518E-1,-9.086096576E-1,1.372045645E0,1.777110546E0
3.281599333E0,4.507244325E-1,-5.365220895E-1,1.525850220E0,1.679055497E0
3.291587333E0,4.223987657E-1,-5.666010439E-1,1.295336022E0,1.475585603E0
3.301574333E0,2.600169092E-1,-5.348301977E-1,1.073702576E0,1.227391280E0
3.311562333E0,-5.188936114E-2,-4.000083151E-1,5.977140784E-1,7.210834054E-1
3.321550333E0,-7.298026800E-2,-2.163335305E-1,9.948043406E-2,2.490435157E-1
3.331538333E0,-7.960867167E-2,7.333285511E-2,-1.757211095E-1,2.063810955E-1
3.341526333E0,-8.311700106E-2,3.072498402E-1,-2.679626906E-1,4.160707917E-1
3.351514333E0,-7.908300698E-2,3.012389025E-1,-8.831576049E-2,3.237262299E-1
3.361502333E0,-6.074561244E-1,4.701722717E-1,-5.752198398E-2,7.703075274E-1
3.371490333E0,-1.074410089E0,4.680909553E-1,-4.273215365E-1,1.247425299E0
3.381478333E0,-1.246734551E0,1.661679286E-1,-6.740582496E-1,1.426994514E0
3.391466333E0,-1.406145437E0,-1.513806126E-1,-8.662848794E-1,1.658496479E0
3.401454333E0,-1.587734227E0,-2.686324891E-1,-1.210180097E0,2.014348346E0
3.411442333E0,-1.470950128E0,7.712799042E-2,-1.545850037E0,2.135250651E0
3.421430333E0,-1.107126430E0,4.935687357E-1,-1.734843741E0,2.116369966E0
3.431418333E0,-1.022316075E0,7.395458955E-1,-1.875879752E0,2.260748357E0
3.441406333E0,-7.774750292E-1,7.338188401E-1,-1.757268983E0,2.056927755E0
3.451394333E0,-8.055510199E-1,7.394789448E-1,-1.727769780E0,2.044732248E0
3.461382333E0,-7.884853363E-1,4.853709394E-1,-1.440359250E0,1.712287605E0
3.471370333E0,-6.349158186E-1,7.656174606E-1,-1.630192614E0,1.909663885E0
3.481358333E0,-1.000991279E0,-2.559750214E-1,-1.846832539E0,2.116198757E0
3.491346333E0,-1.228878323E0,-6.188526401E-1,-1.848032972E0,2.303984894E0
3.501334333E0,-7.663647348E-1,1.187402853E-1,-1.453275749E0,1.647247572E0
3.511322333E0,-4.891809851E-1,4.099760637E-1,-8.796872824E-1,1.086843192E0
3.521309333E0,-2.458561224E-1,1.598321781E-1,-4.779601783E-1,5.607472604E-1
3.531297333E0,-1.913191420E-1,1.043991119E-1,-2.649139524E-1,3.430475052E-1
3.541285333E0,-3.839743727E-1,-6.122999579E-2,-1.977879167E-1,4.362401761E-1
3.551273333E0,-4.775368398E-1,-4.540091059E-1,-3.301115763E-1,7.369798874E-1
3.561261333E0,-5.552533525E-1,-4.925214994E-1,-4.121281314E-1,8.489601342E-1
3.571249333E0,-1.262466484E-1,-3.513556802E-1,-5.835228860E-2,3.778809599E-1
3.581237333E0,5.449008572E-1,-2.576154578E-1,2.660488969E-1,6.588358550E-1
3.591225333E0,1.233580070E0,-6.743798465E-2,4.087729990E-1,1.301292832E0
3.601213333E0,2.035760170E0,7.833368629E-2,5.358411813E-1,2.106556765E0
3.611201333E0,2.692885467E0,-5.673465639E-2,8.422849828E-1,2.822108246E0
3.621189333E0,2.570192172E0,-2.287006840E-1,8.582151371E-1,2.719324369E0
3.631177333E0,2.313986478E0,-3.399606264E-1,4.287254530E-1,2.377795652E0
3.641165333E0,2.030339801E0,-2.456231108E-1,-8.882388353E-2,2.047071103E0
3.651153333E0,1.651430871E0,-9.009711474E-2,-3.772746330E-1,1.696371881E0
3.661141333E0,1.327796840E0,-4.992031127E-2,-5.301401460E-1,1.430589061E0
3.671129333E0,1.060988390E0,-1.496331722E-2,-5.359294742E-1,1.188755932E0
3.681117333E0,8.776460195E-1,-1.211835444E-3,-5.082961178E-1,1.014213462E0
3.691105333E0,9.318999946E-1,4.196049660E-2,-6.095330554E-1,1.114328869E0
3.701093333E0,9.557718372E-1,3.206700772E-2,-6.380809164E-1,1.149641402E0
3.711081333E0,8.356682736E-1,2.121644658E-1,-1.098009451E0,1.396058730E0
3.721068333E0,4.888775146E-1,2.139733019E-1,-1.232995933E0,1.343526988E0
3.731056333E0,4.933348471E-1,1.904923457E-1,-1.252382961E0,1.359459336E0
3.741044333E0,-6.453221083E-2,1.706539124E-2,-1.093407692E0,1.095443296E0
3.751032333E0,-6.989235342E-2,-1.203561634E-2,-1.107383707E0,1.109652410E0
3.761020333E0,-2.139648235E-1,-1.118139660E-1,-9.468156570E-1,9.771096136E-1
3.771008333E0,-3.341198426E-1,-2.050735474E-1,-8.524532908E-1,9.382791920E-1
3.780996333E0,-3.299121863E-1,-3.523672485E-1,-7.044567543E-1,8.539695821E-1
3.790984333E0,-1.807128775E-1,-4.142693818E-1,-5.379023248E-1,7.025775230E-1
3.800972333E0,1.005405343E-1,-3.954375467E-1,-5.020273179E-1,6.469240143E-1
3.810960333E0,5.837029803E-1,-2.134262949E-1,-5.397167158E-1,8.231367358E-1
3.820948333E0,1.090024493E0,-8.154907018E-2,-5.977357131E-1,1.245829695E0
3.830936333E0,1.408574955E0,3.129488289E-2,-7.849881166E-1,1.612845038E0
3.840924333E0,1.478300078E0,-1.635492530E-1,-7.619278675E-1,1.671123441E0
3.850912333E0,1.437301741E0,-3.874280307E-1,-3.587880760E-1,1.531230112E0
3.860900333E0,1.420228456E0,-5.046708441E-1,-6.828378439E-2,1.508775730E0
3.870888333E0,1.417478510E0,-6.684987170E-1,1.296748710E-1,1.572562060E0
3.880876333E0,1.487136975E0,-7.446888140E-1,3.401354581E-1,1.697595341E0
3.890864333E0,1.431691922E0,-7.548764178E-1,4.214164335E-1,1.672474806E0
3.900852333E0,1.585333945E0,-6.967717588E-1,3.573385513E-1,1.768181394E0
3.910840333E0,1.939355956E0,-5.983789068E-1,5.145789510E-1,2.093788513E0
3.920828333E0,1.971668254E0,-5.185451174E-1,7.188935298E-1,2.161752218E0
3.930816333E0,1.768350041E0,-6.919086295E-1,5.261973685E-1,1.970452509E0
3.940803333E0,1.486508399E0,-1.003682753E0,3.744457501E-1,1.832292528E0
3.950791333E0,1.066008809E0,-1.210183313E0,2.338664067E-1,1.629604838E0
3.960779333E0,4.832349515E-1,-1.376127001E0,-1.377048522E-1,1.464992890E0
3.970767333E0,1.203134787E-1,-1.490197700E0,-5.211623311E-1,1.583279727E0
3.980755333E0,2.175099903E-1,-1.420522278E0,-5.359756672E-1,1.533774447E0
3.990743333E0,5.331538010E-1,-1.206337307E0,-3.310196489E-1,1.359807590E0
4.000731333E0,8.696996534E-1,-9.697335264E-1,-2.580481517E-1,1.327911687E0
4.010719333E0,9.581428832E-1,-7.975891587E-1,-3.946823788E-1,1.307654553E0
4.020707333E0,6.422581673E-1,-5.847899777E-1,-6.931593490E-1,1.111280682E0
4.030695333E0,3.509440362E-2,-4.648846346E-1,-1.104740181E0,1.199083070E0
4.040683333E0,-5.097111440E-1,-4.592970353E-1,-1.374269925E0,1.536026382E0
4.050671333E0,-7.757541937E-1,-4.161957470E-1,-1.455231643E0,1.700797637E0
4.060659333E0,-8.557481968E-1,-3.387110764E-1,-1.454017761E0,1.720813127E0
4.070647333E0,-7.383910704E-1,-1.696651483E-1,-1.452841886E0,1.638522865E0
4.080635333E0,-5.566543454E-1,1.555602023E-1,-1.493421562E0,1.601365355E0
4.090623333E0,-4.234407395E-1,5.242452756E-1,-1.358342695E0,1.516321221E0
4.100611333E0,-2.124591655E-1,8.098267964E-1,-1.180331231E0,1.447114422E0
4.110599333E0,1.443677545E-2,1.028274972E0,-1.168277196E0,1.556415576E0
4.120587333E0,7.120271444E-2,1.132420315E0,-1.351028997E0,1.764291628E0
4.130575333E0,-7.613601029E-2,1.173911573E0,-1.487103646E0,1.896138794E0
4.140563333E0,-2.367175090E-1,1.124576860E0,-1.288840935E0,1.726794501E0
4.150550333E0,-4.855153656E-1,1.003644454E0,-4.809714943E-1,1.214232654E0
4.160538333E0,-5.524168682E-1,1.026868717E0,-4.177964222E-1,1.238619235E0
4.170526333E0,-4.798271942E-1,1.049498611E0,-5.099198896E-1,1.261625842E0
4.180514333E0,-2.855780125E-1,1.019288094E0,-5.580717105E-1,1.196639902E0
4.190502250E0,-1.640243393E-1,8.775811154E-1,-6.006376863E-1,1.076019623E0
4.200490250E0,-1.065391928E-1,8.340629205E-1,-7.009916943E-1,1.094714991E0
4.210478250E0,-1.531882793E-1,7.929605028E-1,-6.096061456E-1,1.011865930E0
4.220466250E0,-2.701963270E-1,6.806354901E-1,-3.594260073E-1,8.157559563E-1
4.230454250E0,-3.515983397E-1,5.277498043E-1,-9.575751185E-2,6.413351304E-1
4.240442250E0,-4.728988284E-1,4.675220212E-1,8.874026835E-2,6.708837287E-1
4.250430250E0,-7.011039609E-1,3.935772550E-1,1.864618599E-1,8.253592217E-1
4.260418250E0,-9.078340244E-1,3.255010468E-1,2.627101368E-1,9.995649870E-1
4.270406250E0,-9.680352026E-1,3.587874913E-1,3.870798290E-1,1.102565831E0
4.280394250E0,-8.987410194E-1,4.128090397E-1,5.326281363E-1,1.123316275E0
4.290382250E0,-7.330385292E-1,3.961316112E-1,6.474253517E-1,1.055189710E0
4.300370250E0,-5.586330432E-1,3.560290673E-1,7.204301780E-1,9.786966921E-1
4.310358250E0,-4.606816560E-1,3.651399064E-1,7.501638544E-1,9.530480302E-1
4.320346250E0,-4.958433026E-1,4.312347856E-1,6.975488538E-1,9.583310620E-1
4.330334250E0,-5.475858986E-1,3.004097673E-1,5.588482207E-1,8.380976545E-1
4.340322250E0,-6.262063909E-1,1.555373982E-1,4.249855739E-1,7.726183173E-1
4.350310250E0,-7.399014062E-1,7.153892934E-2,2.618716460E-1,7.881298550E-1
4.360298250E0,-8.982586241E-1,-5.876451731E-4,1.347619486E-1,9.083114465E-1
4.370285250E0,-9.985529906E-1,-5.819558322E-2,1.397297430E-1,1.009960000E0
4.380273250E0,-1.009238777E0,-1.177906975E-1,2.326858538E-1,1.042391608E0
4.390261250E0,-9.154763353E-1,-1.669897547E-1,2.789355755E-1,9.714872896E-1
4.400249250E0,-7.362977672E-1,-1.343070352E-1,3.059731007E-1,8.085742514E-1
4.410237250E0,-5.059817898E-1,5.975474328E-2,3.666853255E-1,6.277310960E-1
4.420225250E0,-1.480041379E-1,2.476977029E-1,4.744471711E-1,5.553012651E-1
4.430213250E0,1.629110295E-1,2.845755073E-1,5.262897545E-1,6.200839690E-1
4.440201250E0,4.196067202E-1,2.466814569E-1,5.242391360E-1,7.153657893E-1
4.450189250E0,5.240239584E-1,1.492838010E-1,5.481179953E-1,7.728648646E-1
4.460177250E0,4.681982517E-1,-3.289117277E-2,4.994726694E-1,6.853935947E-1
4.470165250E0,3.247058254E-1,-1.894989038E-1,4.625533497E-1,5.960698860E-1
4.480153250E0,2.442036992E-1,-2.779108509E-1,4.350340140E-1,5.710730961E-1
4.490141250E0,2.764008075E-1,-4.166117764E-1,4.922244608E-1,7.016036619E-1
4.500129250E0,3.568508935E-1,-5.465953803E-1,7.082247001E-1,9.631673249E-1
4.510117250E0,5.490114498E-1,-5.985525692E-1,9.512718201E-1,1.250838449E0
4.520105250E0,8.054276437E-1,-6.291200584E-1,1.079505352E0,1.486552233E0
4.530093250E0,1.107316464E0,-6.345100218E-1,1.141755395E0,1.712412947E0
4.540081250E0,1.330162624E0,-6.210839376E-1,1.246428741E0,1.925788792E0
4.550069250E0,1.324349322E0,-6.973944873E-1,1.310286768E0,1.989249007E0
4.560057250E0,1.184000943E0,-8.734515193E-1,1.302162647E0,1.964790917E0
4.570045250E0,9.587720436E-1,-1.135910226E0,1.326954256E0,1.992572074E0
4.580033250E0,6.662282431E-1,-1.347122473E0,1.362869609E0,2.028795850E0
4.590020250E0,6.366588736E-1,-1.379218424E0,1.368990474E0,2.044923691E0
4.600008250E0,4.561389542E-1,-1.532604631E0,1.364220901E0,2.101913026E0
4.609996250E0,3.841866267E-1,-1.577367699E0,1.344274879E0,2.107786320E0
4.619984250E0,4.272273964E-1,-1.545776362E0,1.304660577E0,2.067386522E0
4.629972250E0,4.800833023E-1,-1.475242276E0,1.298333890E0,2.022990519E0
4.639960250E0,5.116506654E-1,-1.372533010E0,1.304316761E0,1.961345324E0
4.649948250E0,4.796166945E-1,-1.150199944E0,1.287708330E0,1.791977909E0
4.659936250E0,4.147459298E-1,-9.101664788E-1,1.156369341E0,1.528923562E0
4.669924250E0,3.183183271E-1,-8.867650446E-1,8.399648076E-1,1.262228062E0
4.679912250E0,2.098963308E-1,-9.530429417E-1,3.886182314E-1,1.050414893E0
4.689900250E0,-1.226330692E-1,-8.547746354E-1,1.438812661E-1,8.754315312E-1
4.699888250E0,-6.866069591E-1,-4.828344172E-1,1.485128456E-1,8.524167150E-1
4.709876250E0,-1.135535712E0,-1.000148696E-1,7.992032826E-2,1.142729883E0
4.719864250E0,-1.273507197E0,1.749890381E-1,-2.091847247E-1,1.302382430E0
4.729852250E0,-1.078306673E0,2.852078837E-1,-6.117865723E-1,1.272152361E0
4.739840250E0,-7.703724164E-1,4.198692602E-1,-9.463812089E-1,1.290504261E0
4.749828250E0,-6.364852113E-1,6.732694602E-1,-9.766399652E-1,1.346191224E0
4.759816250E0,-7.839344484E-1,9.116779840E-1,-8.008270544E-1,1.444657031E0
4.769804250E0,-1.015697027E0,1.121075547E0,-7.063418967E-1,1.669541766E0
4.779792250E0,-1.249041862E0,1.329806528E0,-7.924748915E-1,1.989097139E0
4.789780250E0,-1.513885063E0,1.605453629E0,-9.899780488E-1,2.418550367E0
4.799767250E0,-1.733915203E0,1.776967667E0,-1.127764762E0,2.726890057E0
4.809755250E0,-1.751804175E0,1.806104343E0,-1.292767925E0,2.828794739E0
4.819743250E0,-1.697722692E0,1.718986092E0,-1.294139097E0,2.740797608E0
4.829731250E0,-1.563439046E0,1.613961328E0,-1.167356259E0,2.532179586E0
4.839719250E0,-1.233203509E0,1.626687208E0,-1.083977888E0,2.311257283E0
4.849707250E0,-7.123107344E-1,1.594705862E0,-1.085305790E0,2.056298137E0
4.859695250E0,-3.020221370E-1,1.483548539E0,-1.174847712E0,1.916350903E0
4.869683250E0,-4.887161314E-2,1.320301294E0,-1.352436422E0,1.890679301E0
4.879671250E0,1.606276917E-1,1.039803343E0,-1.465477134E0,1.804055287E0
4.889659250E0,2.712727994E-1,7.151308465E-1,-1.348122931E0,1.549979515E0
4.899647250E0,1.803772473E-1,3.022934479E-1,-1.134080924E0,1.187458135E0
4.909635250E0,-1.028630483E-1,-1.630139405E-1,-1.058284637E0,1.075695461E0
4.919623250E0,-4.225543016E-1,-5.276334447E-1,-8.877125859E-1,1.115787984E0
4.929611250E0,-6.375897503E-1,-5.072137982E-1,-5.466088289E-1,9.811053657E-1
4.939599250E0,-4.514851552E-1,-2.921777648E-1,-1.349285942E-1,5.544478489E-1
4.949587250E0,1.283878988E-1,-4.177367806E-2,2.104208261E-1,2.500108333E-1
4.959575250E0,7.211692661E-1,9.718013942E-2,3.635523874E-1,8.134490938E-1
4.969563250E0,1.324206650E0,1.705121174E-1,3.265734261E-1,1.374499122E0
4.979551250E0,1.809673483E0,2.577549139E-1,3.439092511E-1,1.860007872E0
4.989539250E0,1.908330045E0,-1.766940862E-1,4.083256871E-1,1.959508670E0
4.999527250E0,1.713611332E0,-4.238003433E-1,5.269820648E-1,1.842221654E0
5.009515250E0,1.613621605E0,-4.377947769E-1,4.290464652E-1,1.726128564E0
5.019502250E0,1.601499158E0,-4.011777583E-1,1.571263790E-1,1.658442596E0
5.029490250E0,1.525611654E0,-2.980507082E-1,-1.617433405E-1,1.562845498E0
5.039478250E0,1.506712868E0,-1.686149883E-1,-3.870377290E-1,1.564740517E0
5.049466250E0,1.491141148E0,-1.738991171E-1,-4.960912246E-1,1.581091183E0
5.059454250E0,1.354316887E0,-2.354936868E-1,-5.771137530E-1,1.490869474E0
5.069442250E0,1.123395723E0,-1.661860549E-1,-7.123388010E-1,1.340545531E0
5.079430250E0,8.637536198E-1,-1.004212511E-1,-8.111228317E-1,1.189148852E0
5.089418250E0,6.611516905E-1,-1.713088006E-1,-8.525304741E-1,1.092371948E0
5.099406250E0,5.175861740E-1,-3.191562331E-1,-7.928841966E-1,9.992104373E-1
5.109394250E0,4.013289088E-1,-3.939959157E-1,-6.632397312E-1,8.695887624E-1
5.119382250E0,2.737110883E-1,-5.086972368E-1,-6.475762099E-1,8.677819923E-1
5.129370250E0,1.732214248E-1,-7.369549942E-1,-5.583044297E-1,9.406445459E-1
5.139358250E0,2.210072100E-2,-8.922652280E-1,-4.541889077E-1,1.001455562E0
5.149346250E0,-1.733313525E-1,-8.678519332E-1,-3.446699739E-1,9.497410840E-1
5.159334250E0,-2.891038835E-1,-8.307630444E-1,-2.717066628E-1,9.206371717E-1
5.169322250E0,-2.583802736E-1,-8.906063730E-1,-2.191302538E-1,9.528683778E-1
5.179310250E0,-1.931902510E-1,-1.003964589E0,-1.200076693E-1,1.029402355E0
5.189297708E0,-1.201801622E-1,-1.034954832E0,3.651761591E-2,1.042548949E0
5.199285708E0,-1.058919060E-1,-9.782701689E-1,1.841773528E-1,1.001072883E0
5.209273708E0,3.841035962E-3,-1.015304094E0,2.338804400E-1,1.041900771E0
5.219260708E0,2.871017969E-1,-9.989383221E-1,3.250063723E-1,1.089006132E0
5.229248708E0,5.387215197E-1,-9.395382124E-1,4.556893033E-1,1.174991774E0
5.239236708E0,6.553687942E-1,-9.155225283E-1,5.129171723E-1,1.237244431E0
5.249224708E0,7.989980453E-1,-9.721352702E-1,5.863254565E-1,1.388244359E0
5.259212708E0,9.961755127E-1,-1.026620795E0,6.662826222E-1,1.578052104E0
5.269200708E0,1.108214012E0,-1.075183675E0,7.329554987E-1,1.709205077E0
5.279188708E0,1.103456132E0,-1.089733887E0,6.745254421E-1,1.691188917E0
5.289176708E0,1.123377596E0,-1.174986876E0,4.830823392E-1,1.695859643E0
5.299164708E0,1.124278652E0,-1.267088124E0,3.478075898E-1,1.729301859E0
5.309152708E0,1.045479820E0,-1.337481583E0,1.908870327E-1,1.708309954E0
5.319140708E0,9.211937428E-1,-1.420064734E0,2.335494876E-2,1.692845892E0
5.329128708E0,8.089476675E-1,-1.571211750E0,-8.203702033E-2,1.769133337E0
5.339116708E0,6.761878055E-1,-1.689845908E0,-1.237054485E-1,1.824311426E0
5.349104708E0,4.863129258E-1,-1.572399904E0,-1.787844658E-1,1.655568061E0
5.359092708E0,2.361930138E-1,-1.253590411E0,-4.211983323E-1,1.343385311E0
5.369080708E0,-6.284353495E-2,-9.480418181E-1,-6.726309443E-1,1.164115538E0
5.379068708E0,-3.210606712E-1,-6.543279898E-1,-9.395966846E-1,1.189145493E0
5.389056708E0,-5.358318257E-1,-3.501067150E-1,-1.244213816E0,1.399199227E0
5.399044708E0,-8.328002143E-1,6.576889694E-2,-1.440442865E0,1.665159870E0
5.409032708E0,-9.853090471E-1,3.256624299E-1,-1.522479300E0,1.842507302E0
5.419020708E0,-7.598760796E-1,3.906501389E-1,-1.181113003E0,1.457754134E0
5.429008708E0,-4.186764282E-1,7.030592698E-1,-7.152074450E-1,1.086786077E0
5.438995708E0,-5.406627953E-2,1.154384211E0,-6.409174007E-1,1.321476895E0
5.448983708E0,2.385254681E-1,1.498057235E0,-7.709571379E-1,1.701600654E0
5.458971708E0,2.343049479E-1,1.481300284E0,-7.842835271E-1,1.692409522E0
5.468959708E0,4.514793080E-1,1.768679824E0,-7.557304037E-1,1.975649343E0
5.478947708E0,8.944456547E-1,2.011765535E0,-5.597796822E-1,2.271692517E0
5.488935708E0,1.194496111E0,2.211974199E0,-6.494818175E-1,2.596435528E0
5.498923708E0,8.515341085E-1,2.343072283E0,-8.323300982E-1,2.628282986E0
5.508911708E0,2.433008891E-1,2.267281843E0,-8.115274590E-1,2.420400606E0
5.518899708E0,-3.132178009E-2,1.834675593E0,-6.627146512E-1,1.950950100E0
5.528887708E0,-1.114280498E-1,1.576043304E0,-4.697693986E-1,1.648336129E0
5.538875708E0,-2.178999996E-1,1.750226596E0,-4.530761826E-1,1.821002903E0
5.548863708E0,-4.550917178E-1,1.926594992E0,-6.399759990E-1,2.080491772E0
5.558851708E0,-7.310241634E-1,1.886459704E0,-7.127913755E-1,2.145040346E0
5.568839708E0,-7.175089091E-1,1.771941401E0,-5.069354707E-1,1.977771204E0
5.578827708E0,-5.795649058E-1,1.700881358E0,-2.939097100E-1,1.820789882E0
5.588815708E0,-5.254465860E-1,1.627917463E0,1.878418028E-2,1.710719797E0
5.598803708E0,-5.786878234E-1,1.528199632E0,3.552744842E-1,1.672272008E0
5.608791708E0,-7.099186385E-1,1.374502645E0,6.769947213E-1,1.688657409E0
5.618779708E0,-7.875059277E-1,1.155003431E0,9.897067380E-1,1.712809954E0
5.628767708E0,-8.236680329E-1,9.542223251E-1,1.090550743E0,1.666814386E0
5.638755708E0,-8.524965602E-1,8.542127180E-1,1.076330899E0,1.617070795E0
5.648742708E0,-8.952771288E-1,6.579988718E-1,1.058999167E0,1.534914619E0
5.658730708E0,-1.055024230E0,5.297249937E-1,9.719738871E-1,1.529188651E0
5.668718708E0,-1.206415660E0,4.957322055E-1,7.643211329E-1,1.511745997E0
5.678706708E0,-1.305019011E0,4.366671413E-1,4.232653230E-1,1.439759128E0
5.688694708E0,-1.253412071E0,4.053243113E-1,1.519124168E-1,1.326049395E0
5.698682708E0,-1.188826066E0,4.642385173E-1,-3.220938742E-2,1.276660589E0
5.708670708E0,-9.963801652E-1,3.919949985E-1,-1.816075015E-1,1.086008654E0
5.718658708E0,-7.476051128E-1,2.994142789E-1,-1.373744845E-1,8.169663788E-1
5.728646708E0,-5.638160151E-1,3.053416014E-1,4.632748961E-2,6.428594160E-1
5.738634708E0,-5.222738868E-1,2.078790414E-1,1.209455627E-1,5.749882937E-1
5.748622708E0,-4.351158750E-1,4.079426944E-2,2.245517921E-1,4.913384826E-1
5.758610708E0,-2.623364997E-1,4.018498957E-2,3.419182742E-1,4.328318134E-1
5.768598708E0,-7.064255118E-2,1.603277296E-1,4.035748243E-1,4.399636232E-1
5.778586708E0,1.110257614E-1,2.294488353E-1,4.775654912E-1,5.413338028E-1
5.788574708E0,2.711453301E-1,2.187887764E-1,5.828621507E-1,6.790556718E-1
5.798562708E0,3.970124942E-1,1.959822965E-1,6.813590831E-1,8.125750311E-1
5.808550708E0,5.180750012E-1,1.870652926E-1,8.427416503E-1,1.006781317E0
5.818538708E0,6.789254719E-1,1.484292305E-1,1.056434578E0,1.264525623E0
5.828526708E0,8.093458629E-1,3.100427628E-2,1.115494965E0,1.378524939E0
5.838514708E0,8.583782744E-1,-1.242363757E-1,1.056218816E0,1.366691672E0
5.848502708E0,9.026352650E-1,-3.310541475E-1,1.054297421E0,1.426846285E0
5.858489708E0,9.655331790E-1,-6.571703213E-1,9.237998468E-1,1.489138445E0
5.868477708E0,1.014543956E0,-7.604227942E-1,9.395288569E-1,1.578054732E0
5.878465708E0,1.010171993E0,-8.627712876E-1,1.006589988E0,1.666746878E0
5.888453708E0,9.586983687E-1,-9.449486411E-1,1.089041576E0,1.731485504E0
5.898441708E0,1.001846142E0,-9.522026968E-1,1.193416130E0,1.826096309E0
5.908429708E0,1.011639059E0,-9.558039969E-1,1.401565313E0,1.975186116E0
5.918417708E0,1.104595755E0,-9.794191468E-1,1.551614222E0,2.141705008E0
5.928405708E0,1.126183090E0,-9.584562939E-1,1.635183797E0,2.204711517E0
5.938393708E0,9.541416335E-1,-9.257861459E-1,1.681841070E0,2.143841326E0
5.948381708E0,7.554620165E-1,-8.395075554E-1,1.576151478E0,1.939007291E0
5.958369708E0,6.947907221E-1,-9.592170167E-1,1.594015891E0,1.985879677E0
5.968357708E0,5.660402960E-1,-1.085875309E0,1.649062749E0,2.054004565E0
5.978345708E0,3.830955362E-1,-1.050225420E0,1.462345950E0,1.840704023E0
5.988333708E0,1.251573122E-1,-9.151132232E-1,1.113082988E0,1.446392168E0
5.998321708E0,-2.265515399E-1,-8.043231046E-1,6.709264809E-1,1.071635945E0
6.008309708E0,-4.776268870E-1,-6.413840085E-1,3.453067356E-1,8.710554697E-1
6.018297708E0,-6.766304398E-1,-3.850338882E-1,1.889954585E-1,8.011236674E-1
6.028285708E0,-8.545004010E-1,-2.342078841E-1,3.974177063E-2,8.869068027E-1
6.038273708E0,-9.528605086E-1,-1.253759980E-1,-5.723430097E-2,9.627762226E-1
6.048261708E0,-1.079074997E0,1.410786957E-1,-1.915080070E-1,1.104980255E0
6.058249708E0,-1.258236609E0,3.891017962E-1,-3.829341531E-1,1.371567766E0
6.068236708E0,-1.420681615E0,5.697456765E-1,-4.742647380E-1,1.602458557E0
6.078224708E0,-1.490618992E0,7.057203376E-1,-4.751628703E-1,1.716323375E0
6.088212708E0,-1.474300582E0,8.101738286E-1,-4.583737600E-1,1.743574014E0
6.098200708E0,-1.448415543E0,9.061395013E-1,-6.511751711E-1,1.828394237E0
6.108188708E0,-1.499467583E0,9.986424530E-1,-9.889945471E-1,2.055188555E0
6.118176708E0,-1.518707262E0,1.140271372E0,-1.293328089E0,2.297691905E0
6.128164708E0,-1.543710541E0,1.156207373E0,-1.470306934E0,2.425213435E0
6.138152708E0,-1.488606380E0,1.091327838E0,-1.355146607E0,2.289840110E0
6.148140708E0,-1.302908167E0,1.097325912E0,-1.122315157E0,2.039922832E0
6.158128708E0,-1.107357395E0,1.227272678E0,-1.118068909E0,1.995624391E0
6.168116708E0,-9.652180141E-1,1.242697633E0,-1.307776558E0,2.046026087E0
6.178104708E0,-9.154623020E-1,1.073326015E0,-1.503690442E0,2.061840175E0
6.188093458E0,-7.782562172E-1,8.767265448E-1,-1.431126496E0,1.849987898E0
6.198081458E0,-5.939861861E-1,7.269021687E-1,-1.207378111E0,1.529368581E0
6.208069458E0,-4.508071706E-1,5.976877660E-1,-1.019721665E0,1.265025709E0
6.218057458E0,-4.359824324E-1,6.007175007E-1,-9.335120720E-1,1.192638665E0
6.228045458E0,-4.726509064E-1,6.421017542E-1,-9.369291848E-1,1.230256006E0
6.238033458E0,-3.222739685E-1,5.166333702E-1,-8.076004690E-1,1.011429220E0
6.248021458E0,-5.883906931E-2,3.592912290E-1,-6.288510865E-1,7.266401532E-1
6.258009458E0,-5.687206596E-2,3.675662085E-1,-6.245106983E-1,7.268789183E-1
6.267996458E0,5.311935219E-1,-3.976399004E-3,-2.996171772E-1,6.098793507E-1
6.277984458E0,7.875544596E-1,-2.300051978E-1,-9.222520888E-2,8.256209221E-1
6.287972458E0,1.097783456E0,-4.059628272E-1,1.143206674E-1,1.176011713E0
6.297960458E0,1.339590089E0,-5.523814926E-1,3.854449475E-1,1.499398122E0
6.307948458E0,1.353351804E0,-5.337411538E-1,3.887258202E-1,1.505838134E0
6.317936458E0,1.485401814E0,-5.668802485E-1,5.650211263E-1,1.687311660E0
6.327924458E0,1.484669742E0,-5.308368418E-1,3.831060612E-1,1.622591215E0
6.337912458E0,1.503008365E0,-4.052263704E-1,2.519886822E-1,1.576940345E0
6.347900458E0,1.572877329E0,-2.165335053E-1,2.321362156E-1,1.604592495E0
6.357888458E0,1.495911599E0,-1.191109988E-1,1.363810426E-1,1.506830691E0
6.367876458E0,1.449375656E0,-2.957053900E-2,5.958312750E-3,1.449689522E0
6.377864458E0,1.505691944E0,4.717095047E-2,-2.042251164E-1,1.520210916E0
6.387852458E0,1.507551359E0,2.994505316E-2,-4.445059186E-1,1.572002964E0
6.397840458E0,1.439434805E0,2.543041795E-2,-6.997555929E-1,1.600711452E0
6.407828458E0,1.253861137E0,-3.115951985E-2,-1.008635929E0,1.609498401E0
6.417816458E0,9.064827329E-1,-1.198109105E-1,-1.275849591E0,1.569668048E0
6.427804458E0,4.960152107E-1,-2.228017205E-1,-1.460820411E0,1.558739225E0
6.437792458E0,2.786215800E-1,-3.445810962E-1,-1.364894500E0,1.435027217E0
6.447780458E0,1.919178969E-1,-5.168505943E-1,-9.725159240E-1,1.117924075E0
6.457768458E0,2.538726550E-1,-6.328967750E-1,-3.355442244E-1,7.599997232E-1
6.467756458E0,3.988795102E-1,-6.572749865E-1,1.388836509E-1,7.812835209E-1
6.477743458E0,5.397336727E-1,-5.293782538E-1,5.020559692E-1,9.075318007E-1
6.487731458E0,5.476192278E-1,-5.024810618E-1,7.214563644E-1,1.035795985E0
6.497719458E0,4.563541317E-1,-4.993428612E-1,6.528960067E-1,9.401465748E-1
6.507707458E0,3.397846252E-1,-3.196684492E-1,4.938985187E-1,6.793947716E-1
6.517695458E0,3.079705095E-1,-1.810198563E-1,3.048323089E-1,4.696134151E-1
6.527683458E0,4.393814188E-1,-1.700633436E-1,2.622365123E-1,5.392082719E-1
6.537671458E0,6.179998237E-1,-2.589486229E-1,2.702600616E-1,7.225085967E-1
6.547659458E0,8.104702824E-1,-4.275986946E-1,2.459034848E-1,9.487735484E-1
6.557647458E0,1.028609433E0,-6.467932677E-1,3.226318181E-1,1.257167526E0
6.567635458E0,1.233911022E0,-8.439239573E-1,4.034888703E-1,1.548401538E0
6.577623458E0,1.357709441E0,-1.120859200E0,6.267121750E-1,1.868814711E0
6.587611458E0,1.377431515E0,-1.253438968E0,9.275970286E-1,2.080592000E0
6.597599458E0,1.364108634E0,-1.288349769E0,1.067325017E0,2.158661665E0
6.607587458E0,1.167663238E0,-1.376564373E0,1.177893527E0,2.155411810E0
6.617575458E0,9.666312861E-1,-1.325585423E0,1.072757666E0,1.960194318E0
6.627563458E0,8.147586304E-1,-1.311433407E0,8.503564793E-1,1.762610379E0
6.637551458E0,7.150793910E-1,-1.263879172E0,6.640653580E-1,1.596781731E0
6.647539458E0,6.245855427E-1,-1.187184752E0,4.857030612E-1,1.426682235E0
6.657527458E0,4.954141170E-1,-1.155500445E0,3.980649930E-1,1.318738854E0
6.667515458E0,4.288008821E-1,-1.076485850E0,3.370001811E-1,1.206756439E0
6.677502458E0,3.988836032E-1,-9.992903244E-1,2.819468915E-1,1.112287432E0
6.687490458E0,3.490512925E-1,-8.516077834E-1,1.817267847E-1,9.381349828E-1
6.697478458E0,2.953902251E-1,-6.328897583E-1,7.464321613E-2,7.024076032E-1
6.707466458E0,-4.927448630E-3,-3.540337050E-1,-5.236924213E-1,6.321533803E-1
6.717454458E0,-2.373998791E-1,-4.302024597E-1,-1.036683269E0,1.147233655E0
6.727442458E0,-5.498587114E-1,-5.153349960E-1,-1.529457952E0,1.705038530E0
6.737430458E0,-9.308662069E-1,-6.016521782E-1,-1.896064340E0,2.196259826E0
6.747418458E0,-1.131000026E0,-5.885333651E-1,-1.997752683E0,2.369925814E0
6.757406458E0,-1.008594999E0,-4.047699952E-1,-1.763589823E0,2.071557791E0
6.767394458E0,-7.512993836E-1,-9.318356752E-2,-1.452253656E0,1.637734601E0
6.777382458E0,-4.769994807E-1,1.840311724E-1,-1.230575185E0,1.332558165E0
6.787370458E0,-3.256700313E-1,4.612470818E-1,-1.117809877E0,1.252321349E0
6.797358458E0,-1.957969397E-1,7.357995844E-1,-1.125331151E0,1.358715448E0
6.807346458E0,-1.457611459E-1,9.240331507E-1,-1.283752103E0,1.588427851E0
6.817334458E0,-3.457996559E-1,1.015791752E0,-1.478650326E0,1.826969368E0
6.827322458E0,-5.531594646E-1,1.009473251E0,-1.453485664E0,1.854087973E0
6.837310458E0,-5.556848770E-1,8.686500782E-1,-1.205514019E0,1.586380374E0
6.847298458E0,-3.122167575E-1,8.094464350E-1,-8.200638092E-1,1.193812165E0
6.857286458E0,-1.487508273E-1,9.815282375E-1,-5.966399449E-1,1.158233013E0
6.867274458E0,-2.432424170E-1,1.133992631E0,-5.984362096E-1,1.305079330E0
6.877261458E0,-5.719834059E-1,1.151535448E0,-6.049207717E-1,1.420960254E0
6.887249458E0,-8.988269734E-1,1.071168392E0,-5.875001621E-1,1.516722814E0
6.897237458E0,-9.384605706E-1,1.112370213E0,-5.239005822E-1,1.546786201E0
6.907225458E0,-7.907470393E-1,1.312157292E0,-2.602145451E-1,1.553946347E0
6.917213458E0,-5.360493422E-1,1.547627006E0,6.828203022E-2,1.639256137E0
6.927201458E0,-3.225797778E-1,1.672949794E0,3.071688563E-1,1.731234078E0
6.937189458E0,-3.355968493E-1,1.512002844E0,4.404269010E-1,1.610203000E0
6.947177458E0,-5.462597501E-1,1.313563548E0,5.131031138E-1,1.512323945E0
6.957165458E0,-5.930421531E-1,1.115577995E0,5.858863306E-1,1.392650728E0
6.967153458E0,-5.111483896E-1,9.208978736E-1,6.654061246E-1,1.245829395E0
6.977141458E0,-4.537304860E-1,8.645979577E-1,8.008317322E-1,1.262827164E0
6.987129458E0,-4.547923404E-1,8.097925901E-1,7.229509127E-1,1.176969895E0
6.997117458E0,-6.230278444E-1,6.556535536E-1,4.958789706E-1,1.031475269E0
7.007105458E0,-8.175056523E-1,5.222598535E-1,3.272780156E-1,1.023807475E0
7.017093458E0,-1.026254759E0,4.365700775E-1,1.266103452E-1,1.122418123E0
7.027081458E0,-1.238963016E0,3.633565056E-1,-3.524701595E-2,1.291626749E0
7.037069458E0,-1.240687360E0,2.888811046E-1,4.771912694E-3,1.273883900E0
7.047057458E0,-1.026192194E0,2.930484152E-1,1.007270604E-1,1.071957897E0
7.057045458E0,-7.960358459E-1,2.557712460E-1,3.031611747E-1,8.893810747E-1
7.067033458E0,-5.897829151E-1,1.879873985E-1,4.822917956E-1,7.847219412E-1
7.077021458E0,-4.537690777E-1,1.849526936E-1,5.624044973E-1,7.459307563E-1
7.087008458E0,-3.161583656E-1,1.777155948E-1,6.300181907E-1,7.269538262E-1
7.096996458E0,-1.823033202E-1,6.558821797E-2,7.695011812E-1,7.935164666E-1
7.106984458E0,-2.565582812E-2,-4.044928372E-2,9.180643129E-1,9.193130309E-1
7.116972458E0,1.002376485E-1,-1.072274101E-1,1.040004487E0,1.050311686E0
7.126960458E0,1.458903694E-1,-2.415128106E-1,1.088941004E0,1.124902195E0
7.136948458E0,1.044137299E-1,-4.619937712E-1,1.080884126E0,1.180106336E0
7.146936458E0,7.705402315E-2,-6.025199050E-1,1.096196814E0,1.253241802E0
7.156924458E0,9.191355228E-2,-7.228351378E-1,1.079176739E0,1.302137155E0
7.166912458E0,6.820367754E-2,-7.432805121E-1,1.082321371E0,1.314738458E0
7.176900458E0,1.483111167E-1,-8.422317731E-1,1.071898710E0,1.371246656E0
7.186888458E0,3.291543871E-1,-8.714052862E-1,1.095870540E0,1.438270497E0
7.196876083E0,5.227942890E-1,-8.984416419E-1,1.236354573E0,1.615265886E0
7.206864083E0,6.165637475E-1,-9.387669647E-1,1.332343635E0,1.742576779E0
7.216852083E0,5.467023844E-1,-1.095549527E0,1.362481354E0,1.831793576E0
7.226840083E0,4.413472527E-1,-1.211220902E0,1.383303289E0,1.890865267E0
7.236828083E0,4.168579441E-1,-1.202183445E0,1.391288247E0,1.885390826E0
7.246816083E0,4.143991899E-1,-1.064562208E0,1.451575379E0,1.847184469E0
7.256804083E0,3.910898495E-1,-9.347475886E-1,1.437945519E0,1.759088298E0
7.266792083E0,3.665148792E-1,-1.025793414E0,1.309767535E0,1.703548145E0
7.276780083E0,3.001136059E-1,-1.053406890E0,1.232733977E0,1.649050427E0
7.286767083E0,2.234542698E-1,-8.522153091E-1,1.114948250E0,1.421025103E0
7.296755083E0,1.660442600E-1,-6.392065054E-1,9.126035982E-1,1.126499436E0
7.306743083E0,1.412631753E-1,-4.980716765E-1,8.043049783E-1,9.565234852E-1
7.316731083E0,1.528029478E-1,-3.245286548E-1,7.586440712E-1,8.391712670E-1
7.326719083E0,1.629458204E-1,-1.970400578E-1,7.012384468E-1,7.463990113E-1
7.336707083E0,1.562466654E-1,-1.492466712E-1,6.190605086E-1,6.556855211E-1
7.346695083E0,8.020040989E-3,-1.229657757E-1,5.330234081E-1,5.470821297E-1
7.356683083E0,-1.563864139E-1,9.300581217E-3,3.261723071E-1,3.618446976E-1
7.366671083E0,-3.425921658E-1,8.188557744E-2,1.271477044E-2,3.524717084E-1
7.376659083E0,-5.568853104E-1,1.477263951E-1,-2.831297833E-1,6.419554587E-1
7.386647083E0,-6.988454738E-1,2.605940294E-1,-4.865567547E-1,8.905232844E-1
7.396635083E0,-8.026698044E-1,3.802678227E-1,-5.552773261E-1,1.047480473E0
7.406623083E0,-8.080021727E-1,4.152271557E-1,-5.466977066E-1,1.060263875E0
7.416611083E0,-6.699733847E-1,4.456350160E-1,-4.199587226E-1,9.076454332E-1
7.426599083E0,-5.348035929E-1,5.539242804E-1,-3.176809806E-1,8.329274859E-1
7.436587083E0,-4.597168654E-1,6.004611003E-1,-2.917614430E-1,8.105663878E-1
7.446575083E0,-4.161504310E-1,5.435074657E-1,-2.744782430E-1,7.375092219E-1
7.456563083E0,-4.174224928E-1,5.394570994E-1,-2.771510053E-1,7.362527958E-1
7.466551083E0,-4.159320375E-1,6.146990705E-1,-4.040993196E-1,8.450743560E-1
7.476539083E0,-4.835229269E-1,6.894919753E-1,-6.948696595E-1,1.091804675E0
7.486526083E0,-7.135673010E-1,7.908148670E-1,-1.007235521E0,1.465977436E0
7.496514083E0,-9.107702038E-1,9.535884869E-1,-1.435589676E0,1.949295022E0
7.506502083E0,-9.899078822E-1,1.132044339E0,-1.826734489E0,2.366094017E0
7.516490083E0,-9.401957318E-1,1.279173734E0,-2.033865087E0,2.580089271E0
7.526478083E0,-8.035843089E-1,1.320069745E0,-2.050097542E0,2.567339441E0
7.536466083E0,-6.439436272E-1,1.332946483E0,-1.901602238E0,2.409875680E0
7.546454083E0,-4.756025809E-1,1.230039580E0,-1.707443104E0,2.157442267E0
7.556442083E0,-2.509379375E-1,9.191320145E-1,-1.364815562E0,1.664480408E0
7.566430083E0,1.720733240E-1,6.509559005E-1,-8.440338850E-1,1.079697185E0
7.576418083E0,1.802395454E-1,9.407971179E-1,-8.180716628E-1,1.259693120E0
7.586406083E0,3.895760053E-1,9.758827507E-1,-7.167394155E-1,1.271940249E0
7.596394083E0,7.359808481E-1,8.279593045E-1,-5.035142648E-1,1.216844704E0
7.606382083E0,9.577517045E-1,6.596197200E-1,-4.548397028E-1,1.248705593E0
7.616370083E0,1.125873188E0,3.795135319E-1,-4.020025080E-1,1.254283450E0
7.626358083E0,1.300290661E0,7.621787131E-2,-2.900447005E-1,1.334425305E0
7.636346083E0,1.398042073E0,-6.339843571E-2,-1.638126701E-1,1.409033566E0
7.646334083E0,1.457968140E0,-2.012880599E-1,-5.563508749E-2,1.472848683E0
7.656322083E0,1.441800004E0,-4.559828335E-1,4.192395151E-2,1.512767402E0
7.666310083E0,1.349777693E0,-6.355052179E-1,1.910846686E-1,1.504087781E0
7.676298083E0,1.258112648E0,-6.915227133E-1,2.555057824E-1,1.458195564E0
7.686285083E0,1.231302871E0,-6.890224439E-1,2.933928162E-1,1.441158573E0
7.696273083E0,1.202830440E0,-5.559702212E-1,3.027027529E-1,1.359239828E0
7.706261083E0,1.022322799E0,-4.216626012E-1,1.950812405E-1,1.122942539E0
7.716249083E0,8.056521767E-1,-3.352664816E-1,2.154874384E-2,8.728936888E-1
7.726237083E0,7.293349028E-1,-2.984003717E-1,-2.072194755E-2,7.882902900E-1
7.736225083E0,6.940554348E-1,-3.351056832E-1,-8.470101178E-2,7.753599337E-1
7.746213083E0,5.602650011E-1,-4.064709502E-1,-1.838762212E-1,7.161885014E-1
7.756201083E0,3.510115716E-1,-4.134577882E-1,-3.286912876E-1,6.341880073E-1
7.766189083E0,2.420951933E-1,-5.002462560E-1,-3.889409977E-1,6.783299337E-1
7.776177083E0,3.552271217E-1,-6.048827648E-1,-2.459496778E-1,7.433442750E-1
7.786165083E0,5.703131488E-1,-5.434636116E-1,-6.310256660E-2,7.903111531E-1
7.796153083E0,8.142449525E-1,-4.094044983E-1,7.415906668E-2,9.143885679E-1
7.806141083E0,9.811803281E-1,-4.219877064E-1,1.244538921E-1,1.075303321E0
7.816129083E0,1.129700190E0,-5.210711145E-1,2.083392173E-1,1.261405112E0
7.826117083E0,1.176411842E0,-6.535754532E-1,3.010093993E-1,1.379025871E0
7.836105083E0,1.179665818E0,-8.276523256E-1,3.498453444E-1,1.482906463E0
7.846093083E0,1.172545371E0,-9.856037468E-1,4.215620291E-1,1.588707631E0
7.856081083E0,1.162286139E0,-1.015476587E0,4.024381256E-1,1.595010411E0
7.866069083E0,1.100013877E0,-9.615342683E-1,4.405385828E-1,1.525992438E0
7.876057083E0,1.117744096E0,-9.178023577E-1,4.234471714E-1,1.506990557E0
7.886044083E0,1.202328456E0,-9.178988367E-1,4.442246675E-1,1.576536567E0
7.896032083E0,1.248634603E0,-9.059892279E-1,4.533936864E-1,1.607939890E0
7.906020083E0,1.322166848E0,-8.225026828E-1,4.457893825E-1,1.619680219E0
7.916008083E0,1.373995399E0,-7.018003643E-1,3.984006232E-1,1.593458554E0
7.925996083E0,1.380721451E0,-7.129305393E-1,3.836480981E-1,1.600577253E0
7.935984083E0,1.127154020E0,-6.171584094E-1,7.895436823E-2,1.287476011E0
7.945972083E0,1.030965569E0,-5.963306272E-1,-3.391092718E-2,1.191490735E0
7.955960083E0,9.482754144E-1,-5.287923628E-1,-1.049107432E-1,1.090804239E0
7.965948083E0,9.354480851E-1,-5.062460840E-1,-1.561972564E-1,1.075056185E0
7.975936083E0,9.526886004E-1,-4.305538774E-1,-1.650049174E-1,1.058403908E0
7.985924083E0,9.352013326E-1,-2.808142859E-1,-2.728702587E-1,1.013862108E0
7.995912083E0,8.276166576E-1,-1.767642528E-1,-5.461802280E-1,1.007227767E0
8.005900083E0,5.379950032E-1,-1.131325132E-1,-8.743154454E-1,1.032794794E0
8.015888083E0,5.511182016E-1,-1.123519099E-1,-8.829313177E-1,1.046862902E0
8.025876083E0,4.117237964E-1,-1.792288542E-2,-9.975396681E-1,1.079316035E0
8.035864083E0,4.334318769E-1,1.521194082E-1,-1.022639426E0,1.121068643E0
8.045852083E0,4.062624970E-1,3.156917578E-1,-1.122411051E0,1.234713356E0
8.055840083E0,2.834186357E-1,4.550332457E-1,-1.244379292E0,1.354939556E0
8.065828083E0,1.489613271E-1,5.507638603E-1,-1.367944992E0,1.482161870E0
8.075815083E0,2.686269343E-2,6.247445869E-1,-1.341271164E0,1.479876933E0
8.085803083E0,8.132307529E-3,7.491341597E-1,-1.243396960E0,1.451655649E0
8.095791083E0,1.314234808E-1,8.524468589E-1,-1.041628844E0,1.352378803E0
8.105779083E0,2.127915797E-1,1.051501282E0,-9.762119490E-1,1.450491287E0
8.115767083E0,6.775958151E-2,1.484046137E0,-1.157825882E0,1.883492785E0
8.125755083E0,-3.168708488E-1,1.696667855E0,-1.236242307E0,2.123060052E0
8.135743083E0,-4.600986886E-1,1.674314534E0,-1.073916584E0,2.041645609E0
8.145731083E0,-2.694496375E-1,1.740868127E0,-8.384679204E-1,1.950962172E0
8.155719083E0,-1.455459684E-2,1.719188406E0,-6.469289231E-1,1.836937027E0
8.165707083E0,-4.420495033E-3,1.721682828E0,-6.481697023E-1,1.839656290E0
8.175695083E0,-2.190735358E-1,1.591986907E0,-8.101866925E-1,1.799671638E0
8.185683083E0,-5.545587033E-1,1.228378971E0,-9.092905658E-1,1.625810440E0
8.195670708E0,-7.613180029E-1,7.648275018E-1,-7.956499296E-1,1.340755391E0
8.205658708E0,-8.998063821E-1,4.246201229E-1,-5.930018073E-1,1.158276702E0
8.215646708E0,-8.380691403E-1,3.715455312E-1,-2.605039823E-1,9.530311068E-1
8.225634708E0,-5.608783740E-1,5.146192968E-1,2.245664102E-1,7.936294120E-1
8.235622708E0,-2.242667404E-1,7.200770062E-1,6.227395767E-1,9.780649498E-1
8.245610708E0,5.263166517E-2,9.943155134E-1,7.960867167E-1,1.274828417E0
8.255598708E0,1.144750339E-1,1.163994695E0,7.373847646E-1,1.382651248E0
8.265586708E0,-5.140696585E-2,1.090951277E0,5.560409725E-1,1.225560659E0
8.275574708E0,-3.491784695E-1,9.319175363E-1,4.396357727E-1,1.087968525E0
8.285561708E0,-6.434211785E-1,8.016877645E-1,3.704205269E-1,1.092659806E0
8.295549708E0,-8.834189755E-1,7.624278045E-1,2.879315168E-1,1.201927536E0
8.305537708E0,-1.083589925E0,7.108933693E-1,1.861765158E-1,1.309273922E0
8.315525708E0,-1.136330641E0,6.761626625E-1,1.743090069E-1,1.333726696E0
8.325513708E0,-9.577914655E-1,5.663209623E-1,2.715756851E-1,1.145354651E0
8.335501708E0,-7.667418802E-1,3.563404316E-1,5.276007003E-1,9.966113149E-1
8.345489708E0,-6.972892374E-1,2.147641379E-1,7.831807423E-1,1.070377499E0
8.355477708E0,-6.760720307E-1,1.840954918E-1,9.122089112E-1,1.150256336E0
8.365465708E0,-5.684826779E-1,1.258081073E-1,1.030606842E0,1.183702115E0
8.375453708E0,-4.330167246E-1,9.747133076E-2,1.128288673E0,1.212451843E0
8.385441708E0,-3.670364508E-1,1.201404011E-1,1.087453473E0,1.153995029E0
8.395429708E0,-3.417156681E-1,1.728419405E-1,9.370315111E-1,1.012260830E0
8.405417708E0,-3.990356308E-1,1.144072062E-1,7.288618630E-1,8.387836782E-1
8.415405708E0,-4.308172944E-1,-2.209136546E-2,5.316229999E-1,6.846273319E-1
8.425393708E0,-3.258375540E-1,-3.826090479E-1,4.749342442E-1,6.914639046E-1
8.435381708E0,-2.776143971E-1,-6.162216854E-1,5.192257333E-1,8.522876751E-1
8.445369708E0,-2.024867392E-1,-7.361568493E-1,5.934368402E-1,9.670031383E-1
8.455357708E0,-2.319616762E-1,-7.659975296E-1,5.857419044E-1,9.917923236E-1
8.465345708E0,2.224400702E-1,-7.920264101E-1,7.802015859E-1,1.133798895E0
8.475333708E0,2.895368698E-1,-8.258619082E-1,9.342967683E-1,1.280152312E0
8.485320708E0,3.673013297E-1,-1.006315754E0,1.017081063E0,1.477171470E0
8.495308708E0,4.809305638E-1,-1.134394335E0,1.109441342E0,1.658012306E0
8.505296708E0,6.809717050E-1,-1.202166488E0,1.171720621E0,1.811589341E0
8.515284708E0,8.819013306E-1,-1.318794467E0,1.260181977E0,2.026086725E0
8.525272708E0,1.059354970E0,-1.290303909E0,1.375076256E0,2.162857332E0
8.535260708E0,1.106925578E0,-1.184551751E0,1.477310729E0,2.193375042E0
8.545248708E0,1.070391005E0,-1.054899684E0,1.540907970E0,2.152428308E0
8.555236708E0,1.094555208E0,-8.960080308E-1,1.658061029E0,2.179460454E0
8.565224708E0,1.123324094E0,-8.109357208E-1,1.719239861E0,2.207998973E0
8.575212708E0,1.102502744E0,-7.924082333E-1,1.672920558E0,2.154550139E0
8.585200708E0,9.406614625E-1,-8.125782037E-1,1.566258574E0,1.999573265E0
8.595188708E0,7.334516349E-1,-7.556619912E-1,1.303419213E0,1.675672400E0
8.605176708E0,5.016338003E-1,-5.844449919E-1,9.468203348E-1,1.220524955E0
8.615164708E0,3.171167243E-1,-3.163513237E-1,5.910406512E-1,7.415997763E-1
8.625152708E0,9.940529734E-2,-4.287646294E-2,2.541018659E-1,2.762020320E-1
8.635140708E0,-2.137671876E-1,1.165969884E-1,-5.403119624E-2,2.494206053E-1
8.645128708E0,-5.342907920E-1,3.015309709E-1,-3.508580822E-1,7.067453365E-1
8.655116708E0,-8.624008664E-1,4.577872843E-1,-6.685928571E-1,1.183351537E0
8.665104708E0,-1.122297323E0,6.002681422E-1,-9.179853755E-1,1.569257874E0
8.675092708E0,-1.122457829E0,7.145578194E-1,-9.067704159E-1,1.610197827E0
8.685079708E0,-8.501886642E-1,8.082436627E-1,-6.245159608E-1,1.328946488E0
8.695067708E0,-5.824297491E-1,9.291582352E-1,-3.601516467E-1,1.154239424E0
8.705055708E0,-5.838807356E-1,9.415467310E-1,-3.475573289E-1,1.161130078E0
8.715043708E0,-6.840613738E-1,1.352390229E0,-6.411021727E-1,1.645573241E0
8.725031708E0,-9.327978346E-1,1.426614785E0,-9.671171898E-1,1.959759476E0
8.735019708E0,-9.817311358E-1,1.419540823E0,-1.131160825E0,2.063593221E0
8.745007708E0,-8.875225514E-1,1.389739319E0,-1.087913648E0,1.975506963E0
8.754995708E0,-6.278898042E-1,1.305311372E0,-1.028344554E0,1.776394074E0
8.764983708E0,-3.719390488E-1,1.263762227E0,-1.045678040E0,1.681926332E0
8.774971708E0,-3.185656643E-1,1.225316200E0,-1.263478637E0,1.788648132E0
8.784959708E0,-3.546000078E-1,1.136341458E0,-1.421769782E0,1.854303747E0
8.794947708E0,-2.930080694E-1,1.221894994E0,-1.452393989E0,1.920502383E0
8.804935708E0,-5.046965718E-2,1.327353621E0,-1.261109346E0,1.831614480E0
8.814923708E0,1.978189069E-1,1.228058544E0,-9.533399802E-1,1.567200442E0
8.824911708E0,3.219017932E-1,1.102671436E0,-7.188865131E-1,1.355102535E0
8.834899708E0,3.178911880E-1,9.239857882E-1,-6.256783873E-1,1.160292200E0
8.844887708E0,1.942398262E-1,7.755033481E-1,-5.654181522E-1,9.791997957E-1
8.854875708E0,2.077451402E-1,7.921263975E-1,-5.589791983E-1,9.915039168E-1
8.864863708E0,1.702162483E-1,5.893373573E-1,-3.955799264E-1,7.299147690E-1
8.874851708E0,2.930615714E-1,4.500894248E-1,-1.730419153E-1,5.642774844E-1
8.884839708E0,5.555468827E-1,4.255007136E-1,9.257545710E-2,7.058706762E-1
8.894826708E0,8.390339309E-1,3.297952420E-1,1.999309212E-1,9.234258021E-1
8.904814708E0,9.697627625E-1,2.030106497E-1,1.330112922E-1,9.996725180E-1
8.914802708E0,1.013610740E0,4.842722476E-2,-4.056915164E-2,1.015577562E0
8.924790708E0,1.069920596E0,-1.435900748E-1,-1.766835612E-1,1.093876260E0
8.934778708E0,1.035341917E0,-3.613731301E-1,-2.425653094E-1,1.123103448E0
8.944766708E0,9.052592030E-1,-5.815085202E-1,-3.135563546E-1,1.120697984E0
8.954754708E0,8.265735143E-1,-8.078179854E-1,-3.489267468E-1,1.207287682E0
8.964742708E0,8.197138533E-1,-8.520580190E-1,-3.070390481E-1,1.221559105E0
8.974730708E0,9.611161923E-1,-7.282864970E-1,-2.801406866E-1,1.237992068E0
8.984718708E0,1.121877493E0,-5.098742813E-1,-2.030305302E-1,1.248920449E0
8.994706708E0,1.126792078E0,-3.866161448E-1,-1.752030462E-1,1.204088260E0
9.004694708E0,9.859767991E-1,-4.049056506E-1,-2.822591329E-1,1.102619178E0
9.014682708E0,8.590413487E-1,-3.897011358E-1,-4.031403762E-1,1.025836818E0
9.024670708E0,7.176407638E-1,-2.899523145E-1,-4.970905137E-1,9.198802038E-1
9.034658708E0,5.975570807E-1,-2.672241873E-1,-5.155338013E-1,8.332216579E-1
9.044646708E0,4.774359754E-1,-3.515234953E-1,-5.616092759E-1,8.166510008E-1
9.054634708E0,3.617461824E-1,-4.212474489E-1,-6.124595869E-1,8.266900624E-1
9.064622708E0,3.651624182E-1,-4.316379511E-1,-5.524197918E-1,7.904571708E-1
9.074610708E0,4.166731721E-1,-3.138890612E-1,-3.550598913E-1,6.310391442E-1
9.084598708E0,4.604454285E-1,-1.630589640E-1,-1.596289873E-1,5.138867890E-1
9.094585708E0,5.058639684E-1,-1.344888836E-1,1.208327115E-2,5.235758014E-1
9.104573708E0,5.518213293E-1,-2.308732170E-1,9.890039027E-2,6.062924286E-1
9.114561708E0,5.342609712E-1,-3.751637882E-1,1.248754764E-1,6.646627250E-1
9.124549708E0,5.333306792E-1,-5.414603555E-1,7.241542697E-2,7.634559084E-1
9.134537708E0,5.950916022E-1,-7.269796443E-1,-3.058970869E-2,9.399835895E-1
9.144525708E0,6.417234394E-1,-8.534560883E-1,-1.531064183E-1,1.078720465E0
9.154513708E0,7.275246048E-1,-8.688366044E-1,-2.356679338E-1,1.157457762E0
9.164501708E0,8.680937156E-1,-7.369175720E-1,-2.146583033E-1,1.158754674E0
9.174489708E0,1.111205447E0,-5.071588343E-1,-7.366088390E-2,1.223688504E0
9.184477708E0,1.351850531E0,-3.622607374E-1,1.757602859E-1,1.410540456E0
9.194466500E0,1.434180497E0,-4.134764993E-1,4.146979827E-1,1.549132315E0
9.204454500E0,1.301514190E0,-6.116813225E-1,4.728959048E-1,1.513844036E0
9.214442500E0,1.048498737E0,-8.237686050E-1,4.352088457E-1,1.402622920E0
9.224430500E0,9.802278167E-1,-9.917573565E-1,3.482759517E-1,1.437263151E0
9.234418500E0,1.007757093E0,-8.863414139E-1,3.870166790E-1,1.396766756E0
9.244406500E0,1.060579669E0,-7.479354805E-1,3.838445646E-1,1.353356334E0
9.254394500E0,1.048676493E0,-9.192939824E-1,4.872186595E-1,1.477229107E0
9.264382500E0,5.631149340E-1,-7.653788942E-1,7.392810166E-2,9.530837554E-1
9.274370500E0,2.481885767E-1,-6.624480182E-1,-2.277566510E-1,7.431742989E-1
9.284357500E0,-1.362354469E-1,-5.243747914E-1,-5.915838575E-1,8.021848162E-1
9.294345500E0,-5.065688503E-1,-4.226852793E-1,-9.260060012E-1,1.136996904E0
9.304333500E0,-6.607043785E-1,-4.370472103E-1,-1.083530576E0,1.342229134E0
9.314321500E0,-7.642310858E-1,-3.529782826E-1,-1.124672754E0,1.404824411E0
9.324309500E0,-8.476831323E-1,-1.985439616E-1,-1.093090773E0,1.397438312E0
9.334297500E0,-8.562990046E-1,-6.658926129E-2,-1.001515190E0,1.319361509E0
9.344285500E0,-8.209970248E-1,-1.188247776E-1,-8.871746421E-1,1.214592231E0
9.354273500E0,-7.869545352E-1,-7.911282778E-2,-8.796697408E-1,1.182951873E0
9.364261500E0,-9.089490885E-1,1.128758204E-1,-6.405256373E-1,1.117677274E0
9.374249500E0,-8.411921382E-1,3.389642608E-1,-6.764971232E-1,1.131436848E0
9.384237500E0,-7.778901815E-1,5.985613400E-1,-7.888864553E-1,1.259257977E0
9.394225500E0,-8.522854757E-1,9.002741593E-1,-1.000953857E0,1.593358942E0
9.404213500E0,-8.969874394E-1,1.056206537E0,-1.053393441E0,1.740631052E0
9.414201500E0,-8.664708209E-1,8.747960865E-1,-8.284674275E-1,1.484047895E0
9.424189500E0,-7.866504800E-1,6.161503494E-1,-5.594785506E-1,1.145197136E0
9.434177500E0,-7.115505964E-1,5.396792936E-1,-5.005877334E-1,1.023790052E0
9.444165500E0,-8.654966748E-1,6.205024320E-1,-7.334279537E-1,1.293067796E0
9.454153500E0,-8.598225367E-1,6.372792631E-1,-7.241338044E-1,1.292203320E0
9.464141500E0,-1.251791807E0,4.916894406E-1,-9.490791142E-1,1.646053584E0
9.474129500E0,-1.152377447E0,3.170956743E-1,-7.835157877E-1,1.429132757E0
9.484117500E0,-9.337097079E-1,3.293356508E-1,-5.078423738E-1,1.112735218E0
9.494104500E0,-6.639829123E-1,4.853089589E-1,-2.463619065E-1,8.585407867E-1
9.504092500E0,-4.437440264E-1,5.422058755E-1,3.541132271E-2,7.015339865E-1
9.514080500E0,-1.063240153E-1,5.709379238E-1,3.008398300E-1,6.540485551E-1
9.524068500E0,1.542337614E-1,6.614019513E-1,4.850253689E-1,8.345598857E-1
9.534056500E0,1.108515143E-1,6.760539043E-1,4.477704191E-1,8.184346571E-1
9.544044500E0,-4.150236726E-2,5.624407500E-1,3.251010972E-1,6.509629538E-1
9.554032500E0,-1.082044798E-1,3.879276752E-1,2.695811999E-1,4.846340001E-1
9.564020500E0,-1.732512456E-1,2.354129952E-1,2.341371328E-1,3.745069684E-1
9.574008500E0,-3.138370210E-1,9.077685356E-2,1.573743010E-1,3.626303676E-1
9.583996500E0,-4.101289684E-1,6.965203285E-2,1.155614465E-1,4.317541248E-1
9.593984500E0,-4.364455318E-1,5.949366510E-2,1.282370406E-1,4.587689364E-1
9.603972500E0,-4.069439900E-1,1.326768315E-1,1.487367940E-1,4.531326368E-1
9.613960500E0,-2.984711230E-1,1.370879710E-1,2.562068635E-1,4.165574150E-1
9.623948500E0,-3.825318646E-1,2.849891979E-1,1.929499304E-1,5.145669500E-1
9.633936500E0,-5.338005030E-1,3.472433335E-1,8.799533308E-2,6.428561957E-1
9.643924500E0,-5.358745104E-1,4.402818900E-1,8.723402560E-2,6.990131678E-1
9.653912500E0,-5.115395683E-1,5.232322454E-1,6.006727695E-2,7.342021454E-1
9.663900500E0,-3.588021094E-1,5.610701627E-1,1.667818862E-1,6.865528958E-1
9.673888500E0,-4.712914288E-2,5.672740585E-1,3.514732093E-1,6.689950899E-1
9.683876500E0,1.848907131E-1,5.238818711E-1,4.991323614E-1,7.468399460E-1
9.693863500E0,3.387549305E-1,3.930170918E-1,6.518259662E-1,8.331232968E-1
9.703851500E0,3.353939509E-1,3.743340683E-1,6.388018781E-1,8.128240501E-1
9.713839500E0,3.903402364E-1,1.337802011E-1,7.666997802E-1,8.706843259E-1
9.723827500E0,3.955629694E-1,-2.777544379E-2,8.025239164E-1,8.951458956E-1
9.733815500E0,3.911453980E-1,-4.572464168E-2,7.907078630E-1,8.833483966E-1
9.743803500E0,4.589982426E-1,-1.731407332E-1,8.581473094E-1,9.884704876E-1
9.753791500E0,5.123792285E-1,-2.484879541E-1,8.917600286E-1,1.058071210E0
9.763779500E0,5.873984206E-1,-3.263693583E-1,9.567921764E-1,1.169189947E0
9.773767500E0,6.587683654E-1,-4.217830539E-1,1.029676550E0,1.293101118E0
9.783755500E0,7.234964579E-1,-5.253477681E-1,1.113568892E0,1.428101215E0
9.793743500E0,8.007329142E-1,-5.490880483E-1,1.206343154E0,1.548526619E0
9.803731500E0,8.946804205E-1,-5.796771723E-1,1.249514317E0,1.642487354E0
9.813719500E0,9.084576300E-1,-5.891297811E-1,1.281223183E0,1.677468929E0
9.823707500E0,8.473007244E-1,-6.018790501E-1,1.222955679E0,1.604929126E0
9.833695500E0,7.533614042E-1,-7.066839588E-1,1.169261282E0,1.560169083E0
9.843683500E0,7.217843932E-1,-7.766792232E-1,1.201612757E0,1.602521932E0
9.853671500E0,7.557514536E-1,-7.870323032E-1,1.216931292E0,1.634472966E0
9.863659500E0,7.532494301E-1,-8.638325572E-1,1.261792885E0,1.704615111E0
9.873647500E0,6.796771315E-1,-8.297251636E-1,1.250510098E0,1.647476966E0
9.883635500E0,5.267882296E-1,-7.833269227E-1,1.171590228E0,1.504569895E0
9.893623500E0,4.349275947E-1,-7.640755498E-1,1.154780653E0,1.451375835E0
9.903610500E0,4.214398223E-1,-6.876278830E-1,1.173887599E0,1.424238647E0
9.913598500E0,3.631015670E-1,-5.688843817E-1,1.192575885E0,1.370295380E0
9.923586500E0,1.810362285E-1,-4.487562597E-1,1.107326404E0,1.208440343E0
9.933574500E0,-4.963993728E-2,-3.049591935E-1,9.184262556E-1,9.690051703E-1
9.943562500E0,-2.243956715E-1,-8.284919858E-2,7.617237997E-1,7.983987438E-1
9.953550500E0,-4.200932086E-1,1.104650134E-1,5.451867861E-1,6.970720585E-1
9.963538500E0,-6.137234625E-1,2.061090893E-1,3.417779410E-1,7.320857915E-1
9.973526500E0,-7.651230785E-1,3.620642710E-1,1.737658006E-1,8.641171304E-1
9.983514500E0,-8.822246817E-1,4.763276356E-1,1.139446914E-2,1.002665567E0
9.993502500E0,-9.666213459E-1,4.653003716E-1,-8.865723789E-2,1.076439208E0
1.000349050E1,-1.093822845E0,4.621586627E-1,-1.497805220E-1,1.196859745E0
1.001347850E1,-1.178051109E0,5.113226366E-1,-2.462233275E-1,1.307624251E0
1.002346650E1,-1.328060842E0,5.793163991E-1,-3.907980734E-1,1.500691915E0
1.003345450E1,-1.407678869E0,7.165113741E-1,-4.763481009E-1,1.649804795E0
1.004344250E1,-1.412508084E0,9.362596786E-1,-6.051792186E-1,1.799445237E0
1.005343050E1,-1.412320389E0,1.139801840E0,-7.644310606E-1,1.969302405E0
1.006341850E1,-1.438421482E0,1.357847435E0,-9.410000163E-1,2.190499270E0
1.007340650E1,-1.427871059E0,1.466017417E0,-1.048844308E0,2.299586312E0
1.008339450E1,-1.256215518E0,1.519856240E0,-1.110939984E0,2.263233984E0
1.009338250E1,-1.054770461E0,1.591370611E0,-1.192349598E0,2.250932853E0
1.010336950E1,-8.781412786E-1,1.602066922E0,-1.147099165E0,2.157217426E0
1.011335750E1,-6.240563697E-1,1.541186882E0,-1.072234924E0,1.978482017E0
1.012334550E1,-3.253501886E-1,1.229413928E0,-1.075376049E0,1.665456393E0
1.013333350E1,-2.337941936E-1,1.247484748E0,-1.011532640E0,1.622983735E0
1.014332150E1,-1.621166852E-1,1.229679977E0,-9.238904786E-1,1.546598940E0
1.015330950E1,-8.906303465E-2,1.175061720E0,-7.902564579E-1,1.418875449E0
1.016329750E1,7.824656278E-2,1.147830652E0,-6.788669997E-1,1.335851090E0
1.017328550E1,3.366800460E-1,1.133317278E0,-5.540985274E-1,1.305674800E0
1.018327350E1,5.617537022E-1,1.164194670E0,-4.258831215E-1,1.360989671E0
1.019326158E1,7.399461374E-1,1.231945188E0,-3.246356589E-1,1.473294792E0
1.020324958E1,7.227564928E-1,1.246812903E0,-3.008597106E-1,1.472221427E0
1.021323758E1,1.085637035E0,1.037106607E0,-8.973955750E-2,1.504078148E0
1.022322558E1,1.427300078E0,8.595178968E-1,-1.273348153E-2,1.666168860E0
1.023321358E1,1.746585535E0,7.457918912E-1,9.108207822E-2,1.901331775E0
1.024320158E1,1.773918344E0,5.035499328E-1,1.304595673E-1,1.848612595E0
1.025318958E1,1.642403062E0,2.689619797E-1,7.810009003E-2,1.666111638E0
1.026317758E1,1.630491407E0,2.697022372E-1,8.643061817E-2,1.654905368E0
1.027316558E1,1.548603491E0,4.948206246E-2,1.124419570E-1,1.553468519E0
1.028315358E1,1.519775256E0,-2.573593497E-2,8.419405818E-2,1.522323161E0
1.029314158E1,1.488053818E0,-8.292345822E-2,-2.488165677E-2,1.490570214E0
1.030312958E1,1.463380030E0,1.406898558E-2,-3.129002970E-1,1.496524522E0
1.031311658E1,1.353094526E0,2.092367649E-2,-5.082353067E-1,1.445546860E0
1.032310458E1,1.263071963E0,-1.481298530E-1,-5.981485265E-1,1.405373580E0
1.033309258E1,1.183072990E0,-3.302858233E-1,-5.369334412E-1,1.340540169E0
1.034308058E1,1.197938659E0,-4.771567708E-1,-4.925916660E-1,1.380355811E0
1.035306858E1,1.196987025E0,-4.946072012E-1,-5.061876118E-1,1.390553889E0
1.036305658E1,1.117054709E0,-8.063731384E-1,-2.608437055E-1,1.402172707E0
1.037304458E1,9.515317288E-1,-9.637439311E-1,-2.214393193E-1,1.372315695E0
1.038303258E1,8.341477051E-1,-1.086485174E0,-2.076317042E-1,1.385410896E0
1.039302058E1,8.260762087E-1,-1.161656978E0,-1.548681843E-1,1.433817629E0
1.040300858E1,8.722130790E-1,-1.217024263E0,-8.924429834E-2,1.499956085E0
1.041299658E1,8.208751103E-1,-1.245634689E0,-5.510416031E-2,1.492808827E0
1.042298458E1,7.722058108E-1,-1.182366062E0,-4.946569026E-2,1.413059862E0
1.043297258E1,8.475878227E-1,-1.153835742E0,5.598182738E-2,1.432786098E0
1.044296058E1,1.027739367E0,-1.183528488E0,2.750986326E-1,1.591435562E0
1.045294858E1,1.056166483E0,-1.184710795E0,2.546854180E-1,1.607448902E0
1.046293658E1,1.138316647E0,-1.237357956E0,5.034142774E-1,1.755062801E0
1.047292458E1,1.075160579E0,-1.159577124E0,4.399029905E-1,1.641372601E0
1.048291258E1,9.459914920E-1,-1.032980812E0,3.057585078E-1,1.433679715E0
1.049290058E1,9.222743082E-1,-9.370952457E-1,2.453760660E-1,1.337515164E0
1.050288858E1,9.733260557E-1,-9.065148926E-1,3.241515094E-1,1.369016823E0
1.051287658E1,9.963497597E-1,-8.832523298E-1,3.512007290E-1,1.377021958E0
1.052286358E1,1.013692309E0,-8.425720811E-1,3.309161532E-1,1.359045735E0
1.053285158E1,1.023770570E0,-8.712614447E-1,3.282463145E-1,1.383816580E0
1.054283958E1,9.881051856E-1,-8.868395966E-1,3.050077254E-1,1.362301744E0
1.055282758E1,9.908311576E-1,-8.699007976E-1,2.531288892E-1,1.342590040E0
1.056281558E1,9.930718106E-1,-8.833154798E-1,2.396370238E-1,1.350505002E0
1.057280358E1,9.559805828E-1,-8.919570798E-1,1.580157405E-1,1.316987199E0
1.058279158E1,9.067519972E-1,-8.784079117E-1,5.449488044E-2,1.263633387E0
1.059277958E1,8.932203707E-1,-8.902613872E-1,-9.684333980E-2,1.264826708E0
1.060276758E1,7.600283995E-1,-8.769788522E-1,-2.966485459E-1,1.197804423E0
1.061275558E1,5.855468997E-1,-8.233002430E-1,-5.289514071E-1,1.140385046E0
1.062274358E1,3.950811589E-1,-6.995930403E-1,-8.293690681E-1,1.154717539E0
1.063273158E1,2.397513369E-1,-5.372673172E-1,-1.140326920E0,1.283153287E0
1.064271958E1,5.811810762E-2,-4.373764086E-1,-1.382305169E0,1.451014617E0
1.065270758E1,-1.234177655E-1,-3.765337908E-1,-1.541989705E0,1.592087275E0
1.066269558E1,-2.290404072E-1,-2.794396055E-1,-1.612574369E0,1.652556231E0
1.067268358E1,-2.611331427E-1,-2.011494809E-1,-1.631268502E0,1.664238131E0
1.068267158E1,-2.812884951E-1,-9.021961391E-2,-1.550352393E0,1.578244385E0
1.069265958E1,-1.704720640E-1,7.432337344E-2,-1.465641441E0,1.477392812E0
1.070264758E1,-1.955981344E-2,2.895336539E-1,-1.442337947E0,1.471241339E0
1.071263558E1,2.764475852E-2,5.614876539E-1,-1.364780479E0,1.476027904E0
1.072262358E1,1.232721698E-1,7.807886463E-1,-1.153072681E0,1.397999837E0
1.073261158E1,2.071153951E-1,9.541293544E-1,-8.831207675E-1,1.316496070E0
1.074259858E1,7.251833797E-2,1.121421703E0,-7.206745917E-1,1.334997158E0
1.075258658E1,-1.635568544E-1,1.397207968E0,-7.548036200E-1,1.596455278E0
1.076257458E1,-3.109192604E-1,1.549924961E0,-7.487634462E-1,1.749166908E0
1.077256258E1,-2.285124037E-1,1.559661745E0,-6.233897871E-1,1.695103980E0
1.078255058E1,-1.697230357E-1,1.546033639E0,-5.206074303E-1,1.640139634E0
1.079253858E1,-2.728000921E-1,1.478948534E0,-5.411557156E-1,1.598298522E0
1.080252658E1,-5.307979578E-1,1.269732234E0,-6.325073504E-1,1.514606209E0
1.081251458E1,-8.738076147E-1,1.130563239E0,-7.565110070E-1,1.616793707E0
1.082250258E1,-1.112055340E0,9.496942413E-1,-7.878263551E-1,1.661101020E0
1.083249058E1,-1.113498141E0,8.178980005E-1,-6.249322826E-1,1.516369218E0
1.084247858E1,-9.943234071E-1,8.088593745E-1,-2.624493510E-1,1.308362407E0
1.085246658E1,-8.847079942E-1,8.027081037E-1,6.154603779E-2,1.196175760E0
1.086245458E1,-8.351086950E-1,7.975777566E-1,2.621452957E-1,1.184169315E0
1.087244258E1,-7.831067750E-1,8.504763472E-1,4.527551705E-1,1.241593123E0
1.088243058E1,-7.231508875E-1,8.188382328E-1,5.612520111E-1,1.228188535E0
1.089241858E1,-7.024999836E-1,6.829466021E-1,6.373915297E-1,1.168841414E0
1.090240658E1,-6.328461966E-1,6.250001103E-1,6.743266368E-1,1.116170175E0
1.091239458E1,-5.421859950E-1,6.017948502E-1,6.807568198E-1,1.058089100E0
1.092238258E1,-4.415127289E-1,5.671723169E-1,6.345766801E-1,9.588041978E-1
1.093237058E1,-3.938047117E-1,4.310532296E-1,6.024333662E-1,8.389368262E-1
1.094235758E1,-3.104070443E-1,3.111894017E-1,5.611286348E-1,7.127809774E-1
1.095234558E1,-2.191790780E-1,2.515887326E-1,4.529399425E-1,5.625752840E-1
1.096233358E1,-2.911059701E-1,1.663000757E-1,3.131102121E-1,4.587334803E-1
1.097232158E1,-3.499485478E-1,2.591643852E-1,1.127126831E-1,4.498158663E-1
1.098230958E1,-2.671206915E-1,3.157437980E-1,1.034524477E-1,4.263214969E-1
1.099229758E1,-2.195641172E-1,3.302945942E-1,1.342982644E-1,4.187349332E-1
1.100228558E1,-1.100942999E-1,3.539126676E-1,2.012652558E-1,4.217613477E-1
1.101227358E1,-1.771852523E-2,3.478555369E-1,2.877976155E-1,4.518239571E-1
1.102226158E1,-7.313112617E-3,3.447553432E-1,3.324112862E-1,4.789644992E-1
1.103224958E1,6.981020004E-2,3.423275793E-1,4.295101494E-1,5.536610912E-1
1.104223758E1,2.131093758E-1,2.891658640E-1,5.602480441E-1,6.655151192E-1
1.105222558E1,2.502450424E-1,1.946228188E-1,7.035013193E-1,7.716312132E-1
1.106221358E1,2.805868292E-1,9.241699755E-2,7.636352545E-1,8.187848753E-1
1.107220158E1,3.353170601E-1,2.176859915E-2,7.457030135E-1,8.179146576E-1
1.108218958E1,3.937266514E-1,-7.802758455E-2,6.600798959E-1,7.725376682E-1
1.109217758E1,4.080116916E-1,-2.216533273E-1,5.915142757E-1,7.519926039E-1
1.110216558E1,3.712160406E-1,-4.161352283E-1,4.860445386E-1,7.397358789E-1
1.111215358E1,2.809136885E-1,-6.848276514E-1,3.907203054E-1,8.369968755E-1
1.112214158E1,1.262197512E-1,-9.992645967E-1,2.974437672E-1,1.050206625E0
1.113212958E1,-3.760665983E-2,-1.142442443E0,1.956150913E-1,1.159678516E0
1.114211758E1,1.974780142E-2,-1.113701039E0,2.188162583E-1,1.135165422E0
1.115210558E1,2.045054904E-1,-1.089798791E0,4.026591504E-1,1.179668721E0
1.116209358E1,3.237006891E-1,-1.081287584E0,5.861745983E-1,1.271835538E0
1.117208058E1,4.268221843E-1,-1.060752747E0,6.774853027E-1,1.329044733E0
1.118206858E1,4.511819771E-1,-1.100866401E0,7.245822859E-1,1.393015254E0
1.119205658E1,4.282176223E-1,-1.156570485E0,8.213835257E-1,1.481788283E0
1.120204458E1,4.565976682E-1,-1.221138364E0,9.029568619E-1,1.585872450E0
1.121203258E1,5.241160521E-1,-1.213475003E0,1.002424432E0,1.658937600E0
1.122202058E1,6.176083526E-1,-1.135602955E0,1.050218988E0,1.665531168E0
1.123200858E1,7.316968855E-1,-9.828163791E-1,1.075761380E0,1.630512470E0
1.124199658E1,7.704922843E-1,-8.711164337E-1,1.096413746E0,1.598319525E0
1.125198458E1,7.585426220E-1,-8.271243221E-1,1.075198293E0,1.554211351E0
1.126197258E1,7.349979311E-1,-8.487414783E-1,1.068675140E0,1.550048583E0
1.127196058E1,5.408925909E-1,-7.642813718E-1,8.520124108E-1,1.265944690E0
1.128194858E1,2.928560418E-1,-6.511979753E-1,5.820259988E-1,9.211827873E-1
1.129193658E1,4.345182896E-2,-5.030435640E-1,2.850289589E-1,5.798123801E-1
1.130192458E1,-1.643164077E-1,-3.939684337E-1,7.934203863E-2,4.341729698E-1
1.131191258E1,-3.204025671E-1,-2.325379193E-1,-1.051580805E-1,4.096216679E-1
1.132190058E1,-4.194353968E-1,4.679409742E-2,-3.179809427E-1,5.284199273E-1
1.133188858E1,-4.307398188E-1,2.897260273E-1,-4.291797817E-1,6.735527057E-1
1.134187658E1,-4.719664899E-1,4.778683770E-1,-4.420436561E-1,8.040604126E-1
1.135186458E1,-5.774037749E-1,6.735664988E-1,-5.079183877E-1,1.022285692E0
1.136185258E1,-7.119669181E-1,8.469311804E-1,-6.036168426E-1,1.260373996E0
1.137184058E1,-8.333147693E-1,9.928519553E-1,-7.535721964E-1,1.499346379E0
1.138182858E1,-9.643482408E-1,1.100458265E0,-8.711772448E-1,1.702916825E0
1.139181558E1,-1.068912829E0,1.159887026E0,-9.083257753E-1,1.820156109E0
1.140180358E1,-1.074187894E0,1.154121671E0,-8.371780246E-1,1.785145235E0
1.141179158E1,-8.596000502E-1,1.227689000E0,-8.841101164E-1,1.740052650E0
1.142177958E1,-6.920618266E-1,1.393711333E0,-9.897447449E-1,1.844173395E0
1.143176758E1,-6.839838982E-1,1.417513593E0,-9.723919630E-1,1.850060780E0
1.144175558E1,-5.493865487E-1,1.417958567E0,-9.491147822E-1,1.792554308E0
1.145174358E1,-5.120295650E-1,1.354587613E0,-9.674224144E-1,1.741547589E0
1.146173158E1,-6.163479853E-1,1.410881097E0,-1.064941108E0,1.872049644E0
1.147171958E1,-5.911280671E-1,1.312757217E0,-9.510379314E-1,1.725467197E0
1.148170758E1,-3.347744384E-1,1.134823521E0,-8.143434781E-1,1.436333404E0
1.149169558E1,-5.542049468E-2,1.052536824E0,-7.235052288E-1,1.278422862E0
1.150168358E1,1.984281868E-2,1.022816012E0,-7.243150681E-1,1.253466653E0
1.151167158E1,-3.556130379E-2,9.882332397E-1,-7.647041255E-1,1.250056775E0
1.152165958E1,-3.685997039E-2,8.914290762E-1,-7.522308451E-1,1.166985732E0
1.153164758E1,-1.871781439E-2,7.648731101E-1,-6.087126911E-1,9.777077126E-1
1.154163558E1,-2.115259498E-2,6.545536923E-1,-4.872028720E-1,8.162442079E-1
1.155162358E1,-1.157123047E-1,5.454276913E-1,-5.044884109E-1,7.519237067E-1
1.156161158E1,-2.088897327E-1,3.982597053E-1,-4.730233741E-1,6.526843232E-1
1.157159958E1,-8.846603394E-2,3.156198370E-1,-4.286026615E-1,5.395760949E-1
1.158158758E1,2.726229215E-1,2.835531217E-1,-2.789332366E-1,4.822130034E-1
1.159157558E1,7.183149478E-1,1.652569324E-1,3.285608947E-2,7.378114532E-1
1.160156358E1,1.061637723E0,2.645865083E-3,3.333924490E-1,1.112758815E0
1.161155058E1,1.174303044E0,-2.203534913E-1,5.378023374E-1,1.310257476E0
1.162153858E1,1.199452795E0,-4.801511300E-1,6.282587636E-1,1.436642332E0
1.163152658E1,1.145204960E0,-6.197440481E-1,6.356151456E-1,1.448994030E0
1.164151458E1,1.070503856E0,-6.495449674E-1,5.090942627E-1,1.351689365E0
1.165150258E1,1.005390725E0,-6.338264823E-1,3.612784052E-1,1.242203125E0
1.166149058E1,9.187329420E-1,-4.104336083E-1,1.990924305E-1,1.025750341E0
1.167147858E1,7.830842632E-1,-1.347946930E-1,4.529837966E-3,7.946138005E-1
1.168146658E1,7.281242368E-1,-1.569977403E-3,-1.572380608E-1,7.449101803E-1
1.169145458E1,8.477696711E-1,9.315023839E-2,-2.002700597E-1,8.760699053E-1
1.170144258E1,1.039943091E0,2.190209109E-1,-1.261367208E-1,1.070215990E0
1.171143058E1,1.170036915E0,2.676153660E-1,-2.768188834E-2,1.200570970E0
1.172141858E1,1.146466204E0,2.078059512E-1,-9.186560512E-3,1.165183446E0
1.173140658E1,1.037763542E0,7.900582373E-2,-7.204997599E-2,1.043257537E0
1.174139458E1,8.996642947E-1,-5.428788900E-2,-1.929101694E-1,9.217143546E-1
1.175138258E1,7.977540502E-1,-1.692400557E-1,-3.508650988E-1,8.877837792E-1
1.176137058E1,6.972678950E-1,-2.471372473E-1,-4.366004831E-1,8.589990211E-1
1.177135858E1,5.848598519E-1,-3.162472433E-1,-5.498785919E-1,8.628092669E-1
1.178134658E1,5.330888969E-1,-3.424544638E-1,-5.638358957E-1,8.481566772E-1
1.179133458E1,4.611710680E-1,-3.724869329E-1,-5.247332257E-1,7.916882134E-1
1.180132258E1,3.179210088E-1,-5.240029085E-1,-5.403499693E-1,8.170868407E-1
1.181131058E1,2.566246471E-1,-6.200346547E-1,-4.980734307E-1,8.356891317E-1
1.182129858E1,5.025439194E-1,-7.691538566E-1,-2.753483087E-1,9.591479225E-1
1.183128658E1,6.388995266E-1,-8.641775429E-1,-1.155953604E-1,1.080905971E0
1.184127458E1,7.041120610E-1,-9.624528658E-1,1.680022001E-2,1.192632198E0
1.185126158E1,6.738699692E-1,-1.049772846E0,1.070069700E-1,1.252028056E0
1.186124958E1,6.611592919E-1,-1.181925182E0,1.408869070E-1,1.361590197E0
1.187123758E1,7.105115461E-1,-1.279847918E0,2.205786091E-1,1.480368965E0
1.188122558E1,7.928882897E-1,-1.328370452E0,2.887910575E-1,1.573734467E0
1.189121358E1,8.044438496E-1,-1.328646441E0,3.665216035E-1,1.595860068E0
1.190120158E1,8.351063561E-1,-1.334033480E0,4.081467623E-1,1.625924885E0
1.191118958E1,7.701969999E-1,-1.385536925E0,3.462914068E-1,1.622600915E0
1.192117758E1,6.565011075E-1,-1.445235828E0,2.474126512E-1,1.606522120E0
1.193116558E1,6.839160705E-1,-1.436595397E0,2.374127430E-1,1.608698958E0
1.194115358E1,6.232713810E-1,-1.386042125E0,2.344844574E-1,1.537713545E0
1.195114158E1,6.414272779E-1,-1.424160123E0,3.217757857E-1,1.594741567E0
1.196112958E1,6.958528689E-1,-1.399476103E0,4.092559791E-1,1.615622181E0
1.197111758E1,7.374084458E-1,-1.313009232E0,4.169351274E-1,1.562561794E0
1.198110558E1,6.865391314E-1,-1.204997125E0,2.617242962E-1,1.411330457E0
1.199109358E1,5.916736123E-1,-1.014339303E0,-4.386522710E-2,1.175111077E0
1.200108158E1,3.727807555E-1,-7.630663204E-1,-4.248183435E-1,9.495821850E-1
1.201106958E1,1.739596358E-1,-6.405823553E-1,-7.693742967E-1,1.016141977E0
1.202105758E1,5.085791230E-2,-5.130610138E-1,-1.017209117E0,1.140408926E0
1.203104558E1,4.481920034E-2,-3.168378121E-1,-1.121881294E0,1.166624446E0
1.204103358E1,-3.587062150E-2,-8.766262650E-2,-1.290905002E0,1.294375202E0
1.205102158E1,-1.973809505E-1,8.222705483E-2,-1.473419407E0,1.488853679E0
1.206100958E1,-3.146293187E-1,2.381179172E-1,-1.472087411E0,1.524051540E0
1.207099758E1,-2.937354630E-1,4.458817685E-1,-1.333593770E0,1.436510848E0
1.208098458E1,-1.261934388E-1,7.110073900E-1,-1.224366027E0,1.421452940E0
1.209097258E1,3.994496137E-2,9.621470565E-1,-1.169966456E0,1.515303292E0
1.210096058E1,1.721756503E-1,1.275646693E0,-1.277435356E0,1.813493874E0
1.211094858E1,-1.535888135E-2,1.581637920E0,-1.488273674E0,2.171813282E0
1.212093658E1,-2.478927076E-1,1.676429472E0,-1.640265028E0,2.358460500E0
1.213092458E1,-3.044279739E-1,1.577570597E0,-1.536969286E0,2.223438770E0
1.214091258E1,-3.061508560E-1,1.566137536E0,-1.448893846E0,2.155413767E0
1.215090058E1,-4.470918497E-1,1.634682106E0,-1.296931143E0,2.134035403E0
1.216088858E1,-6.721570274E-1,1.618692310E0,-1.106386757E0,2.072691854E0
1.217087658E1,-6.984043014E-1,1.577134979E0,-8.369821429E-1,1.917201716E0
1.218086458E1,-5.632406491E-1,1.577666491E0,-4.709961444E-1,1.740146245E0
1.219085250E1,-4.094194087E-1,1.506385424E0,-7.311767757E-2,1.562743579E0
1.220084050E1,-3.263778368E-1,1.449618900E0,3.636400956E-1,1.529755395E0
1.221082850E1,-2.550903377E-1,1.332005666E0,6.948509485E-1,1.523853016E0
1.222081650E1,-1.678677142E-1,1.195785422E0,1.008542374E0,1.573289568E0
1.223080450E1,-1.047388351E-1,1.139743953E0,1.212986176E0,1.667729584E0
1.224079250E1,-1.441981852E-1,1.038508185E0,1.233143283E0,1.618621241E0
1.225078050E1,-2.595997104E-1,7.612735641E-1,1.172216465E0,1.421626143E0
1.226076850E1,-4.029924417E-1,5.848724234E-1,1.070693014E0,1.284858821E0
1.227075650E1,-5.494482368E-1,4.512723166E-1,9.197138125E-1,1.162503146E0
1.228074450E1,-5.523733065E-1,4.640303564E-1,9.325554675E-1,1.179025081E0
1.229073250E1,-6.123490745E-1,3.691680533E-1,8.319073445E-1,1.096962292E0
1.230072050E1,-6.126352957E-1,3.027974778E-1,8.078378659E-1,1.058116409E0
1.231070850E1,-6.571343610E-1,2.993411887E-1,7.198343468E-1,1.019603944E0
1.232069650E1,-7.178015622E-1,3.100059253E-1,5.784901875E-1,9.726220507E-1
1.233068350E1,-7.177647248E-1,3.016946930E-1,4.956444973E-1,9.229676894E-1
1.234067150E1,-7.116646171E-1,2.492358130E-1,4.232267314E-1,8.646998808E-1
1.235065950E1,-7.028204110E-1,2.677685630E-1,3.574443859E-1,8.327202547E-1
1.236064750E1,-6.278073585E-1,3.005919081E-1,3.855349946E-1,7.956976855E-1
1.237063550E1,-5.509211504E-1,2.940693390E-1,4.283266729E-1,7.572678713E-1
1.238062350E1,-4.363645479E-1,2.836718202E-1,4.866234130E-1,7.125209234E-1
1.239061150E1,-2.498892394E-1,2.780620015E-1,5.631430006E-1,6.759387160E-1
1.240059950E1,-9.381448209E-2,2.512665510E-1,6.264367712E-1,6.814389664E-1
1.241058750E1,-4.648536444E-3,2.524055886E-1,5.922703207E-1,6.438278674E-1
1.242057550E1,4.280015677E-2,1.902222043E-1,5.488108903E-1,5.824171476E-1
1.243056350E1,1.477562159E-2,8.270535707E-2,4.727356911E-1,4.801432377E-1
1.244055150E1,-2.376571566E-2,-6.775402665E-2,4.079935652E-1,4.142634025E-1
1.245053950E1,-1.096820712E-2,-1.890170932E-1,3.822225469E-1,4.265464083E-1
1.246052750E1,2.709745914E-2,-2.998358631E-1,4.764773244E-1,5.636190715E-1
1.247051550E1,5.566286176E-2,-4.113960600E-1,5.532530200E-1,6.916892196E-1
1.248050350E1,1.153161559E-1,-5.086908048E-1,6.341743916E-1,8.211219822E-1
1.249049150E1,2.552072820E-1,-4.899534023E-1,7.717862731E-1,9.491254630E-1
1.250047950E1,4.334254450E-1,-4.487357944E-1,9.168118393E-1,1.108947870E0
1.251046750E1,5.379397470E-1,-4.504689091E-1,1.056205952E0,1.268019094E0
1.252045550E1,5.781147963E-1,-5.644703186E-1,1.136302866E0,1.394283925E0
1.253044350E1,5.631622964E-1,-7.431226373E-1,1.174641890E0,1.499722173E0
1.254043150E1,4.665294564E-1,-8.999315125E-1,1.164895751E0,1.544185407E0
1.255041950E1,3.435633883E-1,-9.605466735E-1,1.110679783E0,1.508076687E0
1.256040750E1,2.763323951E-1,-9.669815344E-1,1.033432801E0,1.442011177E0
1.257039450E1,2.711307120E-1,-9.639889294E-1,1.013346446E0,1.424660500E0
1.258038250E1,2.557013717E-1,-1.013538235E0,1.012741844E0,1.455434295E0
1.259037050E1,2.266392481E-1,-1.021561199E0,1.015378354E0,1.458062356E0
1.260035850E1,1.549836668E-1,-9.856078398E-1,1.037860313E0,1.439651618E0
1.261034650E1,1.042298350E-1,-9.315421450E-1,1.077248327E0,1.427970092E0
1.262033450E1,1.068359390E-1,-8.960267419E-1,1.162812388E0,1.471873123E0
1.263032250E1,2.238822860E-1,-8.382281846E-1,1.257468869E0,1.527736143E0
1.264031050E1,2.475386587E-1,-7.090468186E-1,1.224092377E0,1.436114524E0
1.265029850E1,1.504921281E-1,-5.732124907E-1,1.003249474E0,1.165216696E0
1.266028650E1,-5.204811305E-2,-4.755101949E-1,6.684659725E-1,8.219888734E-1
1.267027450E1,-3.292333245E-1,-3.538670594E-1,2.783724886E-1,5.577703112E-1
1.268026250E1,-5.699111527E-1,-2.984126508E-1,-7.090976894E-2,6.472070978E-1
1.269025050E1,-8.325280264E-1,-9.422904968E-2,-4.451953053E-1,9.487786298E-1
1.270023850E1,-8.918790194E-1,1.068602049E-1,-4.625515956E-1,1.010357000E0
1.271022650E1,-8.238718084E-1,3.470392656E-1,-3.997606856E-1,9.792903626E-1
1.272021450E1,-6.579924399E-1,5.068688124E-1,-2.488282621E-1,8.670556775E-1
1.273020250E1,-5.016159663E-1,6.118076223E-1,-8.807368577E-2,7.960427868E-1
1.274019050E1,-5.735013431E-1,8.246690762E-1,-1.494261807E-1,1.015534864E0
1.275017850E1,-8.845840332E-1,9.902464360E-1,-4.837799120E-1,1.413194933E0
1.276016650E1,-1.297938910E0,1.058896256E0,-1.022754616E0,1.962634378E0
1.277015450E1,-1.734580032E0,1.180366899E0,-1.602413662E0,2.640030956E0
1.278014250E1,-2.128016661E0,1.251632178E0,-1.912092728E0,3.122680999E0
1.279013050E1,-2.165589115E0,1.200756140E0,-2.010731748E0,3.189770161E0
1.280011850E1,-1.876400447E0,1.199186162E0,-1.844084932E0,2.891293020E0
1.281010650E1,-1.363975025E0,1.301279717E0,-1.568431984E0,2.452291919E0
1.282009350E1,-9.649464110E-1,1.436450971E0,-1.376717570E0,2.211303741E0
1.283008150E1,-6.923389846E-1,1.472643481E0,-1.257563594E0,2.056569543E0
1.284006950E1,-6.876769996E-1,1.323112051E0,-1.271530838E0,1.959672377E0
1.285005750E1,-7.582847598E-1,1.050685011E0,-1.326602839E0,1.854402831E0
1.286004550E1,-7.824170959E-1,8.827143860E-1,-1.289952491E0,1.747952696E0
1.287003350E1,-7.943781602E-1,8.950262833E-1,-1.147277505E0,1.657816149E0
1.288002150E1,-6.098368183E-1,9.273110998E-1,-9.285185498E-1,1.447049936E0
1.289000950E1,-1.995964605E-1,9.139940661E-1,-6.440842527E-1,1.135811791E0
1.289999750E1,2.300885206E-1,8.288901812E-1,-3.922651398E-1,9.454478302E-1
1.290998550E1,7.154603371E-1,5.775353372E-1,-1.686547494E-1,9.348128070E-1
1.291997350E1,1.144511480E0,2.903774071E-1,1.147732419E-1,1.186338258E0
1.292996150E1,1.130759706E0,3.017607665E-1,1.318284005E-1,1.177733331E0
1.293994950E1,1.495637072E0,-2.585562748E-1,5.344144607E-1,1.609155187E0
1.294993750E1,1.598321781E0,-5.528770441E-1,6.064562505E-1,1.796689935E0
1.295992550E1,1.736685906E0,-7.034346610E-1,6.298106146E-1,1.976754833E0
1.296991350E1,1.868135992E0,-7.163879979E-1,7.117651892E-1,2.123618029E0
1.297990150E1,1.959992826E0,-7.485354048E-1,7.595281702E-1,2.231313553E0
1.298988950E1,1.901931729E0,-8.100428510E-1,7.338431060E-1,2.193636120E0
1.299987750E1,1.719479012E0,-8.347157621E-1,6.108428317E-1,2.006610935E0
1.300986550E1,1.534431302E0,-8.011416346E-1,4.940137088E-1,1.800099131E0
1.301985350E1,1.401899481E0,-6.774999207E-1,3.882293916E-1,1.604696345E0
1.302984150E1,1.283212990E0,-5.429619205E-1,3.034482729E-1,1.426016858E0
1.303982950E1,1.134810949E0,-4.699752206E-1,1.328107327E-1,1.235439715E0
1.304981750E1,9.515118483E-1,-4.174666393E-1,-1.558113402E-1,1.050680906E0
1.305980550E1,7.315334558E-1,-3.837784910E-1,-4.320560271E-1,9.322550819E-1
1.306979250E1,5.053093600E-1,-3.432572865E-1,-5.704327244E-1,8.357969892E-1
1.307978050E1,3.661175609E-1,-3.682178807E-1,-5.878574270E-1,7.843486664E-1
1.308976850E1,2.157119715E-1,-4.112171352E-1,-5.620291060E-1,7.290458854E-1
1.309975650E1,7.892834812E-2,-2.892564958E-1,-5.744211102E-1,6.479649808E-1
1.310974450E1,-1.275979400E-2,-2.629837865E-1,-5.848864567E-1,6.414167534E-1
1.311973250E1,-1.304104507E-2,-3.031167358E-1,-5.940525520E-1,6.670444205E-1
1.312972050E1,3.886205703E-2,-3.332620561E-1,-6.034443498E-1,6.904483621E-1
1.313970850E1,3.128494263E-2,-3.717221171E-1,-6.298614854E-1,7.320393232E-1
1.314969650E1,1.624862292E-1,-3.955197001E-1,-5.853220743E-1,7.248720842E-1
1.315968450E1,3.123863268E-1,-3.904875863E-1,-5.573256058E-1,7.487840830E-1
1.316967250E1,3.966315481E-1,-4.614055413E-1,-5.125265783E-1,7.955470772E-1
1.317966050E1,3.439276698E-1,-6.243633485E-1,-4.576574761E-1,8.470927921E-1
1.318964850E1,3.834577712E-1,-7.697923726E-1,-3.553195077E-1,9.305224940E-1
1.319963650E1,4.825838640E-1,-8.318529654E-1,-1.892059582E-1,9.801354174E-1
1.320962450E1,5.709700835E-1,-8.966196495E-1,2.944190025E-2,1.063391018E0
1.321961250E1,7.150542480E-1,-9.042017341E-1,2.858920079E-1,1.187694234E0
1.322960050E1,9.413979194E-1,-8.854157996E-1,5.301641196E-1,1.396876936E0
1.323958850E1,1.094519833E0,-9.705723095E-1,7.416111320E-1,1.640113211E0
1.324957650E1,1.138483585E0,-1.092085052E0,9.062272096E-1,1.819352190E0
1.325956450E1,1.157090303E0,-1.126529245E0,9.211791247E-1,1.859165697E0
1.326955250E1,1.169768820E0,-1.145686478E0,8.710217088E-1,1.854625411E0
1.327954050E1,1.109945080E0,-1.256721010E0,7.423098743E-1,1.833671107E0
1.328952850E1,1.032133258E0,-1.406395113E0,7.028657269E-1,1.880762214E0
1.329951650E1,9.226365432E-1,-1.415723761E0,6.514242625E-1,1.811045424E0
1.330950450E1,7.600161204E-1,-1.378920216E0,5.153250557E-1,1.656685057E0
1.331949250E1,5.576925185E-1,-1.409973609E0,3.299408376E-1,1.551743368E0
1.332947950E1,3.135610324E-1,-1.435745212E0,7.829714119E-2,1.471670913E0
1.333946750E1,5.722026765E-2,-1.390264984E0,-2.450041831E-1,1.412847456E0
1.334945550E1,-1.195094866E-1,-1.336696302E0,-6.410741061E-1,1.487284617E0
1.335944350E1,-2.317593625E-1,-1.195881316E0,-8.478392529E-1,1.484141477E0
1.336943150E1,-1.809336099E-1,-9.613570976E-1,-9.490387684E-1,1.362944982E0
1.337941950E1,-2.768364251E-2,-7.086094469E-1,-1.048670061E0,1.265939425E0
1.338940750E1,8.015070856E-3,-4.590748411E-1,-1.235659339E0,1.318206340E0
1.339939550E1,-1.018602508E-1,-2.161563599E-1,-1.524622305E0,1.543234349E0
1.340938350E1,-2.897301203E-1,-5.292724192E-2,-1.739891642E0,1.764643806E0
1.341937150E1,-4.054824784E-1,8.941562176E-2,-1.750295008E0,1.798872928E0
1.342935950E1,-3.077448070E-1,3.428947592E-1,-1.595941379E0,1.661117867E0
1.343934750E1,-1.284633279E-3,7.892022049E-1,-1.540251328E0,1.730669213E0
1.344933550E1,1.973508373E-1,1.336128538E0,-1.692753729E0,2.165548893E0
1.345932350E1,4.161054075E-2,1.760865605E0,-1.847765170E0,2.552766193E0
1.346931150E1,-1.154696453E-1,1.979072583E0,-1.847630684E0,2.709944773E0
1.347929950E1,-6.269560039E-2,2.152392241E0,-1.693128535E0,2.739234808E0
1.348928750E1,1.144639242E-1,2.444633741E0,-1.370704878E0,2.805025486E0
1.349927550E1,2.742908397E-1,2.772368424E0,-1.062218644E0,2.981538293E0
1.350926350E1,2.229973099E-1,2.818550318E0,-8.043266129E-1,2.939539929E0
1.351925150E1,2.026832056E-1,2.709855841E0,-4.761235678E-1,2.758820910E0
1.352923950E1,3.385476467E-1,2.619861345E0,-1.238867122E-1,2.644548335E0
1.353922750E1,1.099159598E-1,2.462391735E0,6.364302474E-1,2.545682233E0
1.354921550E1,-1.861250603E-1,2.216524503E0,7.150326133E-1,2.336427839E0
1.355920350E1,-5.270987168E-1,1.946648018E0,6.662212265E-1,2.123940274E0
1.356919150E1,-7.619103259E-1,1.820166312E0,6.335440618E-1,2.072411838E0
1.357917950E1,-8.342210877E-1,1.576605806E0,7.206418473E-1,1.923781527E0
1.358916650E1,-8.763169473E-1,1.404849694E0,7.860493863E-1,1.832868706E0
1.359915450E1,-8.593258157E-1,1.440274465E0,8.069028962E-1,1.861161916E0
1.360914250E1,-8.977250656E-1,1.223288970E0,7.690983081E-1,1.701134447E0
1.361913050E1,-8.338094437E-1,9.690549570E-1,8.410366023E-1,1.530244511E0
1.362911850E1,-7.275026777E-1,7.931157464E-1,8.840381956E-1,1.392772869E0
1.363910650E1,-7.065690610E-1,6.330604970E-1,7.887022680E-1,1.233716620E0
1.364909450E1,-7.906166464E-1,4.375044626E-1,5.690884495E-1,1.067870076E0
1.365908250E1,-9.895614347E-1,2.542533088E-1,2.688760257E-1,1.056489894E0
1.366907050E1,-1.173234465E0,1.426708925E-1,-4.094805121E-3,1.181884453E0
1.367905850E1,-1.149461148E0,1.140394163E-1,-1.149638611E-1,1.160811186E0
1.368904650E1,-9.340675575E-1,1.071695226E-1,-3.584694028E-2,9.408785849E-1
1.369903450E1,-6.910941124E-1,4.890669644E-2,1.198205584E-1,7.031073200E-1
1.370902250E1,-4.916678059E-1,2.645104945E-2,2.820217359E-1,5.674267785E-1
1.371901050E1,-3.056707996E-1,-3.637903690E-2,4.409157282E-1,5.377404127E-1
1.372899850E1,-9.199336678E-2,-1.730927861E-1,6.563166279E-1,6.849638006E-1
1.373898650E1,1.245223045E-1,-3.059631604E-1,8.172857970E-1,8.815187654E-1
1.374897450E1,2.644531918E-1,-3.877329630E-1,9.268719739E-1,1.038924442E0
1.375896250E1,3.476193094E-1,-4.485404974E-1,9.769516218E-1,1.129806281E0
1.376895050E1,4.815565082E-1,-5.228714722E-1,1.011936682E0,1.236651566E0
1.377893850E1,5.698626208E-1,-6.554553330E-1,1.045591502E0,1.359274324E0
1.378892650E1,5.750192803E-1,-8.216273546E-1,1.042125272E0,1.446286198E0
1.379891450E1,6.020299083E-1,-9.984342921E-1,1.053847770E0,1.571593513E0
1.380890250E1,6.093076453E-1,-1.128510282E0,1.010535690E0,1.632780954E0
1.381889050E1,4.921548790E-1,-1.276830170E0,8.931528354E-1,1.634084972E0
1.382887850E1,4.002910280E-1,-1.422783689E0,7.706109828E-1,1.666849609E0
1.383886650E1,4.115726459E-1,-1.487073825E0,7.970661253E-1,1.736690822E0
1.384885450E1,5.068629652E-1,-1.487310053E0,8.555137235E-1,1.789107316E0
1.385884150E1,6.116333753E-1,-1.448505006E0,9.123387194E-1,1.817862502E0
1.386882950E1,6.943779087E-1,-1.350915561E0,9.746431410E-1,1.804733439E0
1.387881750E1,6.967770213E-1,-1.263203818E0,9.775170475E-1,1.742619202E0
1.388880550E1,6.073593530E-1,-1.249173424E0,9.418309057E-1,1.678202932E0
1.389879350E1,4.523558056E-1,-1.301110733E0,9.244021100E-1,1.658925608E0
1.390878150E1,3.533870029E-1,-1.257985178E0,9.581007832E-1,1.620298180E0
1.391876950E1,2.893196458E-1,-1.193009164E0,9.459327275E-1,1.549763029E0
1.392875750E1,1.967766407E-1,-1.031479831E0,7.049344718E-1,1.264754640E0
1.393874550E1,1.261595249E-1,-8.422914147E-1,4.656857032E-1,9.706875023E-1
1.394873350E1,1.855122721E-1,-6.898521638E-1,5.135404855E-1,8.797923853E-1
1.395872150E1,2.211709321E-1,-6.585689753E-1,6.324629116E-1,9.394886966E-1
1.396870950E1,1.245515406E-1,-5.920949042E-1,7.224919063E-1,9.423820969E-1
1.397869750E1,-1.383655876E-2,-5.800484705E-1,6.692559314E-1,8.857489374E-1
1.398868550E1,-4.133396745E-3,-5.788024288E-1,6.640109789E-1,8.808745182E-1
1.399867350E1,-3.519348469E-1,-6.436503893E-1,4.663669038E-1,8.692767391E-1
1.400866150E1,-3.478736633E-1,-6.472850186E-1,4.607845670E-1,8.673617458E-1
1.401864950E1,-4.835214651E-1,-6.128034031E-1,3.691931963E-1,8.634955902E-1
1.402863750E1,-5.997413081E-1,-5.086299938E-1,2.149436474E-1,8.152268879E-1
1.403862550E1,-7.872360787E-1,-3.232101077E-1,8.260361552E-3,8.510426845E-1
1.404861350E1,-9.551570025E-1,-1.647189885E-1,-2.125959903E-1,9.922974855E-1
1.405860150E1,-1.067790456E0,-8.541320264E-2,-3.959459621E-1,1.142035498E0
1.406858950E1,-1.107388970E0,4.865292728E-2,-4.528265065E-1,1.197384350E0
1.407857750E1,-1.006504034E0,2.338611442E-1,-3.702334160E-1,1.097640282E0
1.408856550E1,-9.155444553E-1,3.587214178E-1,-2.163920027E-1,1.006840704E0
1.409855350E1,-8.619848371E-1,4.571932071E-1,-1.304876339E-1,9.844137903E-1
1.410854150E1,-7.693567550E-1,6.200919574E-1,-1.393011421E-1,9.979121506E-1
1.411852950E1,-6.767625868E-1,8.960027683E-1,-3.335912544E-1,1.171371711E0
1.412851650E1,-7.487751406E-1,1.073016112E0,-6.775928915E-1,1.473485635E0
1.413850450E1,-9.060520855E-1,1.175621299E0,-1.034394084E0,1.809139834E0
1.414849250E1,-1.013316333E0,1.178679392E0,-1.369770493E0,2.071802670E0
1.415848050E1,-1.143233571E0,1.066696442E0,-1.507056100E0,2.171645087E0
1.416846850E1,-1.066184226E0,9.847857213E-1,-1.474511667E0,2.068994049E0
1.417845650E1,-8.530687103E-1,9.588474727E-1,-1.479178914E0,1.958337295E0
1.418844450E1,-6.994068065E-1,9.924520057E-1,-1.578194495E0,1.991187768E0
1.419843250E1,-6.426110467E-1,1.096990866E0,-1.670191662E0,2.099018367E0
1.420842050E1,-7.072952852E-1,1.147652312E0,-1.781106911E0,2.233766836E0
1.421840850E1,-6.970299134E-1,1.226439450E0,-1.695957418E0,2.205963732E0
1.422839650E1,-5.259099779E-1,1.187153177E0,-1.402378076E0,1.911171954E0
1.423838450E1,-2.359015301E-1,1.010626906E0,-9.992347759E-1,1.440654856E0
1.424837250E1,3.778821588E-2,8.207970500E-1,-6.413752377E-1,1.042352120E0
1.425836050E1,2.287652957E-1,7.313644713E-1,-3.835638982E-1,8.569415467E-1
1.426834850E1,4.958696151E-1,7.169861680E-1,-1.521732026E-1,8.849364519E-1
1.427833650E1,7.283087164E-1,6.963776565E-1,3.827879727E-2,1.008385191E0
1.428832450E1,8.978352857E-1,6.709177101E-1,1.943503386E-1,1.137545967E0
1.429831250E1,1.197512105E0,7.157091361E-1,2.626417243E-1,1.419596944E0
1.430830050E1,1.490437143E0,6.274495089E-1,4.378202122E-1,1.675345428E0
1.431828850E1,1.733470230E0,4.114773363E-1,6.024298579E-1,1.880732403E0
1.432827650E1,1.808280092E0,1.296187377E-1,6.721503031E-1,1.933510780E0
1.433826450E1,1.712471709E0,-1.367295367E-1,5.487337071E-1,1.803430898E0
1.434825250E1,1.513864598E0,-2.513028038E-1,2.930489999E-1,1.562311376E0
1.435824050E1,1.248376156E0,-3.202134097E-1,1.176173276E-1,1.294145854E0
1.436822850E1,1.009496347E0,-4.729292339E-1,1.071350241E-1,1.119920912E0
1.437821650E1,8.441031745E-1,-6.729502022E-1,1.856602067E-1,1.095372930E0
1.438820450E1,7.094654793E-1,-7.232690012E-1,2.052688444E-1,1.033728501E0
1.439819150E1,5.320931160E-1,-5.845590127E-1,6.272074342E-2,7.929478010E-1
1.440817950E1,3.748264039E-1,-4.970642012E-1,-6.423575699E-2,6.258545244E-1
1.441816750E1,3.305542105E-1,-4.587070513E-1,-1.140727454E-1,5.767935820E-1
1.442815550E1,3.485531098E-1,-4.286231267E-1,-1.955484331E-2,5.528014535E-1
1.443814350E1,3.544582129E-1,-3.739294410E-1,7.596994936E-2,5.208025391E-1
1.444813150E1,3.542325103E-1,-3.681997544E-1,1.398086804E-1,5.297152042E-1
1.445811950E1,3.520617315E-1,-4.085215688E-1,1.474281871E-1,5.590817519E-1
1.446810750E1,3.790773296E-1,-4.097681952E-1,1.674554855E-1,5.827957920E-1
1.447809550E1,4.537594298E-1,-3.673413831E-1,1.560955149E-1,6.043203799E-1
1.448808350E1,4.971545407E-1,-3.844140834E-1,1.217489702E-1,6.401247039E-1
1.449807150E1,4.861152899E-1,-4.228308749E-1,7.209324539E-2,6.482988971E-1
1.450805950E1,4.131657198E-1,-5.228340501E-1,-3.792328656E-2,6.674575129E-1
1.451804750E1,3.681450829E-1,-6.476416987E-1,-1.476357633E-1,7.594517039E-1
1.452803550E1,3.554165715E-1,-8.069350559E-1,-2.498749137E-1,9.164619993E-1
1.453802350E1,3.941309863E-1,-8.992070425E-1,-2.859305996E-1,1.022579507E0
1.454801150E1,4.750792551E-1,-8.615720236E-1,-2.125918972E-1,1.006579339E0
1.455799950E1,5.355277705E-1,-8.021923792E-1,-1.070981866E-1,9.704497039E-1
1.456798750E1,5.753347376E-1,-8.398823619E-1,7.684995532E-3,1.018072444E0
1.457797550E1,6.675771958E-1,-8.885768044E-1,1.367084867E-1,1.119784470E0
1.458796350E1,7.181450862E-1,-8.846960074E-1,3.131727773E-1,1.181734564E0
1.459795150E1,7.293024507E-1,-9.016956174E-1,2.889407462E-1,1.195166853E0
1.460793950E1,7.229599759E-1,-9.229058075E-1,5.142614472E-1,1.280191819E0
1.461792750E1,6.822668633E-1,-1.011825001E0,6.167110974E-1,1.367337004E0
1.462791550E1,8.525228727E-1,-1.003744149E0,5.660163224E-1,1.433412725E0
1.463790350E1,1.041156389E0,-8.201930326E-1,3.545096684E-1,1.372005955E0
1.464789150E1,1.151718466E0,-6.489000195E-1,1.829365736E-1,1.334538291E0
1.465787950E1,1.145873297E0,-5.840345174E-1,1.235428959E-1,1.292046739E0
1.466786750E1,9.927525526E-1,-6.235032231E-1,8.846369505E-2,1.175644387E0
1.467785450E1,7.422400001E-1,-5.601784623E-1,-8.695569813E-2,9.339600745E-1
1.468784250E1,4.964411804E-1,-5.466556066E-1,-3.300700611E-1,8.088463656E-1
1.469783050E1,3.131757009E-1,-5.187088394E-1,-6.098698550E-1,8.596971093E-1
1.470781850E1,1.803705230E-1,-2.781982416E-1,-9.134450126E-1,9.717559252E-1
1.471780650E1,4.746184945E-3,-2.809937954E-2,-1.144443360E0,1.144798107E0
1.472779450E1,-1.563007522E-1,7.493674636E-2,-1.229641970E0,1.241799024E0
1.473778250E1,-2.835659856E-1,1.670970511E-1,-1.224285920E0,1.267756722E0
1.474777050E1,-3.163352439E-1,3.436572361E-1,-1.174723751E0,1.264177271E0
1.475775850E1,-3.284825420E-1,4.863772452E-1,-1.031517254E0,1.186798824E0
1.476774650E1,-2.552920666E-1,6.653763038E-1,-9.598719049E-1,1.195514006E0
1.477773450E1,-2.263673526E-1,9.372806025E-1,-9.451269811E-1,1.350185956E0
1.478772250E1,-1.871655723E-1,1.146044328E0,-1.019451524E0,1.545228126E0
1.479771050E1,-1.650668979E-1,1.296587327E0,-1.113445516E0,1.717016800E0
1.480769850E1,-2.297660467E-1,1.461798651E0,-1.201853662E0,1.906331544E0
1.481768650E1,-3.761285788E-1,1.493940210E0,-1.266620346E0,1.994406468E0
1.482767450E1,-4.746088466E-1,1.444846988E0,-1.211353049E0,1.944276879E0
1.483766250E1,-3.785209671E-1,1.299331425E0,-1.001248557E0,1.683460408E0
1.484765050E1,-3.667832664E-1,1.302155630E0,-1.007935433E0,1.687030849E0
1.485763850E1,-2.553189638E-1,1.266859497E0,-8.397893912E-1,1.541222561E0
1.486762650E1,-2.038324758E-1,1.405427983E0,-7.549720198E-1,1.608340214E0
1.487761450E1,-3.165436971E-1,1.448422560E0,-7.444096094E-1,1.658997737E0
1.488760250E1,-4.979190642E-1,1.328154105E0,-7.352885377E-1,1.597675172E0
1.489759050E1,-6.865151578E-1,1.165548885E0,-6.188055700E-1,1.487523982E0
1.490757850E1,-7.740620095E-1,1.104212762E0,-4.397006768E-1,1.418377419E0
1.491756650E1,-8.070560932E-1,1.185887255E0,-2.629598129E-1,1.458360718E0
1.492755450E1,-8.413967907E-1,1.151343659E0,-1.205017591E-1,1.431104977E0
1.493754250E1,-7.221188539E-1,1.160706806E0,7.145414472E-2,1.368868738E0
1.494753050E1,-4.091057056E-1,1.268602552E0,2.662447786E-1,1.359266786E0
1.495751850E1,-3.525169373E-2,1.295131370E0,6.394906801E-1,1.444837803E0
1.496750650E1,1.591144323E-2,1.189074572E0,1.083953914E0,1.609070415E0
1.497749350E1,-1.837446588E-1,1.079090785E0,1.207100953E0,1.629506592E0
1.498748150E1,-2.941400903E-1,8.880564022E-1,1.190464455E0,1.514056864E0
1.499746950E1,-3.203975970E-1,4.855118573E-1,1.127502222E0,1.268714958E0
1.500745750E1,-3.410797834E-1,3.049586087E-1,1.202010952E0,1.286143655E0
1.501744550E1,-2.995008177E-1,1.457716709E-1,1.118484061E0,1.167029012E0
1.502743350E1,-3.082084912E-1,1.117870688E-1,1.054289820E0,1.104090506E0
1.503742150E1,-2.896868509E-1,1.232294852E-1,9.153108591E-1,9.679348875E-1
1.504740950E1,-4.591040772E-1,4.798517525E-2,6.833915752E-1,8.246836823E-1
1.505739750E1,-6.598161864E-1,-8.027876258E-2,4.986037731E-1,8.309078181E-1
1.506738550E1,-6.866259626E-1,-1.047774267E-1,3.998320216E-1,8.014356912E-1
1.507737350E1,-6.693392542E-1,-5.518075883E-2,3.604206187E-1,7.622092729E-1
1.508736150E1,-6.176896289E-1,-1.116467357E-2,3.741066116E-1,7.222332618E-1
1.509734950E1,-4.687902823E-1,5.198759437E-2,3.795544624E-1,6.054160790E-1
1.510733750E1,-1.592629516E-1,1.324020123E-1,4.420290381E-1,4.881440885E-1
1.511732550E1,1.680416688E-1,2.104524010E-1,5.994594723E-1,6.571756801E-1
1.512731350E1,3.990107802E-1,2.163960958E-1,7.774627501E-1,9.002695156E-1
1.513730150E1,5.537351230E-1,1.782968080E-1,8.480708027E-1,1.028414520E0
1.514728950E1,4.838231814E-1,1.141768259E-1,7.844817477E-1,9.287264565E-1
1.515727750E1,3.965391621E-1,-4.626317024E-3,7.441961861E-1,8.432631103E-1
1.516726550E1,3.685842088E-1,-1.332077587E-1,6.791055661E-1,7.840809881E-1
1.517725350E1,3.773965475E-1,-2.176245958E-1,5.938578397E-1,7.365159554E-1
1.518724150E1,4.487559673E-1,-3.128359777E-1,4.774503011E-1,7.260902541E-1
1.519722871E1,4.529542682E-1,-4.426599526E-1,3.880639154E-1,7.427711661E-1
1.520721671E1,4.662715942E-1,-5.747900695E-1,4.008213705E-1,8.416950722E-1
1.521720471E1,5.519490910E-1,-6.798826611E-1,5.098994243E-1,1.013353667E0
1.522719271E1,6.593966487E-1,-6.968179518E-1,5.882287252E-1,1.125332054E0
1.523718071E1,7.933043191E-1,-7.314352226E-1,5.482729465E-1,1.210343939E0
1.524716871E1,1.126408500E0,-5.858915931E-1,4.747980040E-1,1.355543512E0
1.525715671E1,1.369837736E0,-4.717901963E-1,4.429657620E-1,1.515011577E0
1.526714471E1,1.363890533E0,-4.789957201E-1,4.403122956E-1,1.511128454E0
1.527713271E1,1.710161474E0,-4.461367071E-1,8.524065131E-1,1.962214844E0
1.528712071E1,1.721960571E0,-5.499896890E-1,9.862586349E-1,2.059209305E0
1.529710771E1,1.657250312E0,-5.536488765E-1,1.039308668E0,2.033019475E0
1.530709571E1,1.556157801E0,-3.580454797E-1,1.065131727E0,1.919460670E0
1.531708371E1,1.382025672E0,-1.456477100E-1,1.016025640E0,1.721486659E0
1.532707171E1,1.074976976E0,-8.656393468E-2,9.845290285E-1,1.460262381E0
1.533705971E1,6.377964494E-1,-1.509242374E-1,9.257387835E-1,1.134263960E0
1.534704771E1,2.393475866E-1,-1.479380643E-1,8.778331304E-1,9.218264169E-1
1.535703571E1,-1.909472591E-1,-6.611505210E-2,8.000014275E-1,8.251268629E-1
1.536702371E1,-5.174282992E-1,-2.637386620E-2,6.690822691E-1,8.462261568E-1
1.537701171E1,-8.175714335E-1,6.754937410E-2,4.723275554E-1,9.466146451E-1
1.538699971E1,-1.115011692E0,1.467692059E-1,2.946897286E-1,1.162598086E0
1.539698771E1,-1.283690708E0,1.553476560E-1,2.479102492E-1,1.316607086E0
1.540697571E1,-1.416072255E0,1.191949064E-1,2.945377010E-1,1.451282369E0
1.541696371E1,-1.463606025E0,2.302469802E-1,2.896219468E-1,1.509648019E0
1.542695171E1,-1.529656173E0,2.488475579E-1,1.402402049E-1,1.556097821E0
1.543693971E1,-1.608500029E0,2.668569821E-1,-7.873919070E-2,1.632386245E0
1.544692771E1,-1.722756377E0,1.573737162E-1,-3.834165484E-1,1.771909780E0
1.545691571E1,-1.893930107E0,1.642979890E-1,-7.057004571E-1,2.027801325E0
1.546690371E1,-2.080010728E0,3.723366594E-1,-1.006085374E0,2.340360442E0
1.547689171E1,-2.123959571E0,4.930109113E-1,-1.146720266E0,2.463581008E0
1.548687971E1,-2.030207654E0,5.246098495E-1,-1.220657723E0,2.426306635E0
1.549686771E1,-1.886742125E0,5.107975566E-1,-1.151716127E0,2.268735336E0
1.550685571E1,-1.601284565E0,5.923627067E-1,-1.034267784E0,1.996175263E0
1.551684371E1,-1.190842770E0,8.432907039E-1,-9.557408470E-1,1.744329751E0
1.552683171E1,-8.355817348E-1,1.119900842E0,-9.550824505E-1,1.692500286E0
1.553681971E1,-7.231619972E-1,1.340306958E0,-1.064267508E0,1.857969684E0
1.554680771E1,-7.488230878E-1,1.473295446E0,-1.246797701E0,2.070227039E0
1.555679571E1,-7.233999789E-1,1.453442395E0,-1.298705188E0,2.079047255E0
1.556678371E1,-6.297082883E-1,1.321468399E0,-1.150803961E0,1.862031421E0
1.557677171E1,-5.042346418E-1,1.204334636E0,-9.884074867E-1,1.637566441E0
1.558675971E1,-3.636278164E-1,1.089442695E0,-8.470744371E-1,1.427110955E0
1.559674771E1,-1.889422488E-1,9.563062727E-1,-6.980786115E-1,1.198972313E0
1.560673571E1,8.318307459E-2,8.523562270E-1,-4.729093534E-1,9.783014966E-1
1.561672371E1,4.322238421E-1,7.702198040E-1,-1.084371990E-1,8.898396611E-1
1.562671171E1,8.093938100E-1,7.228088254E-1,1.615006810E-1,1.097111393E0
1.563669971E1,1.143413081E0,6.881430227E-1,3.668028545E-1,1.384008174E0
1.564668671E1,1.487601244E0,5.524531209E-1,4.935172802E-1,1.661842717E0
1.565667471E1,1.686066268E0,3.442033660E-1,5.214237016E-1,1.798104028E0
1.566666271E1,1.702351348E0,8.722934783E-2,4.571902835E-1,1.764832011E0
1.567665071E1,1.635964108E0,-1.856701469E-1,3.156344551E-1,1.676447755E0
1.568663871E1,1.545952363E0,-4.985084635E-1,2.066698372E-1,1.637434523E0
1.569662671E1,1.531929570E0,-4.941359156E-1,2.203762954E-1,1.624667419E0
1.570661471E1,1.418709057E0,-6.845464003E-1,1.769829386E-1,1.585137887E0
1.571660271E1,1.309445354E0,-7.683779311E-1,1.426165134E-1,1.524923359E0
1.572659071E1,1.227875818E0,-7.843297201E-1,1.065216511E-1,1.460889796E0
1.573657871E1,1.230682774E0,-7.386775839E-1,1.080191231E-1,1.439407098E0
1.574656671E1,1.276504480E0,-6.558511895E-1,1.374083984E-1,1.441695369E0
1.575655471E1,1.345115123E0,-5.528343594E-1,4.489492178E-2,1.454983188E0
1.576654271E1,1.457848272E0,-5.485822642E-1,1.592840016E-2,1.557728410E0
1.577653071E1,1.394957082E0,-6.886733651E-1,-4.090127349E-3,1.555696948E0
1.578651871E1,1.182661639E0,-8.405085987E-1,-1.344473684E-1,1.457127088E0
1.579650671E1,8.667424241E-1,-8.955975562E-1,-3.304284954E-1,1.289387608E0
1.580649471E1,6.486345559E-1,-8.573398089E-1,-5.309037924E-1,1.199006744E0
1.581648271E1,5.722795674E-1,-7.749595571E-1,-6.599968654E-1,1.167759428E0
1.582647071E1,5.911783531E-1,-6.317273319E-1,-7.172036844E-1,1.123811546E0
1.583645871E1,6.454139096E-1,-5.152934808E-1,-6.637788445E-1,1.059570121E0
1.584644671E1,7.266150704E-1,-3.843860167E-1,-6.246907926E-1,1.032453707E0
1.585643471E1,7.729387593E-1,-3.028594583E-1,-5.523472863E-1,9.971187000E-1
1.586642271E1,7.561867788E-1,-2.225456125E-1,-4.927249825E-1,9.295821118E-1
1.587641071E1,7.914387649E-1,-1.591495156E-1,-5.462082946E-1,9.747037438E-1
1.588639871E1,8.098145172E-1,-8.740008652E-2,-4.787904829E-1,9.448167303E-1
1.589638671E1,8.825924715E-1,-1.059860462E-1,-3.893573195E-1,9.704646490E-1
1.590637471E1,9.324744835E-1,-2.855283111E-1,-2.744080764E-1,1.013081868E0
1.591636271E1,9.314032736E-1,-4.874993259E-1,-2.055612051E-1,1.071178351E0
1.592635071E1,9.853359443E-1,-6.292060125E-1,-1.591968781E-1,1.179885916E0
1.593633871E1,1.020414268E0,-7.761950737E-1,-4.852136493E-2,1.282995867E0
1.594632671E1,1.024357338E0,-9.350235772E-1,4.184501410E-2,1.387561909E0
1.595631471E1,1.039471513E0,-9.948487794E-1,1.099855417E-1,1.443025274E0
1.596630271E1,1.060681119E0,-1.066046231E0,1.664942032E-1,1.513016630E0
1.597629071E1,1.009432612E0,-1.227972590E0,1.617544502E-1,1.597822075E0
1.598627871E1,9.304092470E-1,-1.275467184E0,8.733576715E-2,1.581172173E0
1.599626671E1,8.540583515E-1,-1.302081370E0,1.161315501E-2,1.557230371E0
1.600625471E1,7.655812079E-1,-1.347603698E0,-8.491385043E-2,1.552211543E0
1.601624171E1,7.142748141E-1,-1.350090519E0,-1.647008622E-1,1.536248448E0
1.602622971E1,8.291851732E-1,-1.350101629E0,-1.568521446E-1,1.592144797E0
1.603621771E1,9.485967189E-1,-1.319547004E0,-1.845913357E-1,1.635577571E0
1.604620571E1,9.566728932E-1,-1.206806254E0,-2.220643866E-1,1.555929610E0
1.605619371E1,9.355930960E-1,-1.060254564E0,-2.013605654E-1,1.428292778E0
1.606618171E1,8.415032101E-1,-9.392300642E-1,-3.202712971E-1,1.301097410E0
1.607616971E1,6.793505645E-1,-7.280350667E-1,-5.634137267E-1,1.144109818E0
1.608615771E1,5.073997396E-1,-5.058233303E-1,-9.093753505E-1,1.157702581E0
1.609614571E1,1.071373630E-1,-2.848155355E-1,-1.616036505E0,1.644436770E0
1.610613371E1,-1.449454594E-1,-1.964623529E-1,-1.867749783E0,1.883639004E0
1.611612171E1,-3.247783309E-1,-1.215565968E-1,-2.002197152E0,2.032006497E0
1.612610971E1,-4.394644493E-1,-1.441391283E-1,-1.991361676E0,2.044364551E0
1.613609771E1,-3.970347136E-1,-6.757510185E-2,-1.863651470E0,1.906672431E0
1.614608571E1,-3.340210247E-1,1.654259169E-1,-1.745665768E0,1.785016737E0
