"Time (s)","Linear Acceleration x (m/s^2)","Linear Acceleration y (m/s^2)","Linear Acceleration z (m/s^2)","Absolute acceleration (m/s^2)"
-1.164125002E-3,4.402302884E-1,9.271988332E-2,-9.373911148E-1,1.039760446E0
8.823875000E-3,4.156829461E-1,4.058873981E-1,-1.046294922E0,1.196774814E0
1.881287500E-2,7.149918289E-1,5.869335669E-1,-1.029201171E0,1.383820573E0
2.880087500E-2,1.028445857E0,5.971454367E-1,-9.694888204E-1,1.534337683E0
3.878887500E-2,1.210550080E0,5.761206034E-1,-7.614530736E-1,1.541803239E0
4.877687500E-2,1.172118232E0,3.976907712E-1,-5.682072741E-1,1.361939281E0
5.876487500E-2,1.095124727E0,2.070852819E-1,-4.371039283E-1,1.197180991E0
6.875287500E-2,9.780599615E-1,1.584572053E-1,-2.289833969E-1,1.016928400E0
7.874087500E-2,8.494143467E-1,2.136134058E-1,-1.630648112E-1,8.909127635E-1
8.872987500E-2,7.805636747E-1,3.537258491E-1,-3.101035738E-1,9.113538572E-1
9.871787500E-2,4.844967806E-1,5.895086807E-1,-3.823669732E-1,8.534999222E-1
1.087058750E-1,1.717517272E-1,8.749522072E-1,-1.046499574E-1,8.977703683E-1
1.186938750E-1,2.003773561E-1,1.110076350E0,3.062759864E-1,1.168856521E0
1.286818750E-1,5.604046033E-1,1.292192559E0,4.913345146E-1,1.491718651E0
1.386698750E-1,1.133454980E0,1.218118570E0,5.906652600E-1,1.765621276E0
1.486588750E-1,1.825543558E0,6.951424322E-1,2.334167558E-1,1.967311786E0
1.586468750E-1,2.155665074E0,-1.372587097E-1,-4.280120927E-1,2.202027751E0
1.686348750E-1,1.917115486E0,-5.848545894E-1,-8.457365942E-1,2.175467091E0
1.786228750E-1,1.280870303E0,-5.506755674E-1,-7.655975801E-1,1.590601134E0
1.886108750E-1,6.170094515E-1,-3.682503328E-1,1.068461716E-2,7.186258637E-1
1.985988750E-1,4.490834114E-1,-2.801710922E-1,8.050949371E-1,9.635090083E-1
2.085878750E-1,5.979608309E-1,-2.678530553E-1,1.195132288E0,1.362953998E0
2.185758750E-1,8.336971772E-1,-2.269932970E-1,1.192864153E0,1.472922886E0
2.285638750E-1,1.105129167E0,-2.330083278E-1,1.085825608E0,1.566722888E0
2.385518750E-1,1.329906515E0,-3.213316897E-1,9.582773691E-1,1.670389449E0
2.485398750E-1,1.437963938E0,-4.390180144E-1,6.074543703E-1,1.621566500E0
2.585278750E-1,1.357941868E0,-4.640271404E-1,6.338323295E-2,1.436434732E0
2.685168750E-1,1.127161256E0,-3.705830795E-1,-5.223417145E-1,1.296404714E0
2.785048750E-1,5.275095568E-1,3.382789671E-2,-9.768218136E-1,1.110671650E0
2.884928750E-1,2.291561821E-1,3.442144758E-1,-1.224298199E0,1.292246974E0
2.984808750E-1,1.945383997E-1,5.949749503E-1,-1.009001380E0,1.187402276E0
3.084688750E-1,3.990144347E-1,7.350724831E-1,-4.239365834E-1,9.376920077E-1
3.184568750E-1,6.269673329E-1,8.312141570E-1,1.506178433E-1,1.051993701E0
3.284448750E-1,8.220099087E-1,8.881511271E-1,7.676043445E-1,1.433083788E0
3.384338750E-1,1.031874957E0,8.197205776E-1,1.626299538E0,2.093217127E0
3.484218750E-1,1.321553768E0,6.627403790E-1,1.729522190E0,2.275296943E0
3.584098750E-1,1.395636821E0,2.342274722E-1,1.254877383E0,1.891396809E0
3.683978750E-1,1.416855197E0,3.544737080E-1,1.142996759E0,1.854608274E0
3.783858750E-1,1.384740096E0,4.055736950E-1,8.559791619E-1,1.677705421E0
3.883738750E-1,1.301673673E0,3.242070580E-1,4.594098866E-1,1.417928775E0
3.983628750E-1,1.247859555E0,1.629680398E-1,7.963615358E-2,1.260973421E0
4.083508750E-1,1.143829475E0,1.064596707E-1,-1.494834834E-1,1.158457959E0
4.183388750E-1,1.022733274E0,1.080518675E-1,-2.136134058E-1,1.050375763E0
4.283268750E-1,9.513668373E-1,2.034907061E-1,-2.245699185E-1,9.984683144E-1
4.383148750E-1,9.602988978E-1,2.222848266E-1,-2.299920416E-1,1.012166417E0
4.483028750E-1,6.548179865E-1,1.928052118E-1,-1.901251405E-1,7.085958045E-1
4.582908750E-1,6.807307266E-1,1.350692198E-1,-7.275398076E-2,6.978045271E-1
4.682798750E-1,8.059451953E-1,-6.992977560E-3,1.626461506E-1,8.222227982E-1
4.782678750E-1,9.328760411E-1,-1.062029779E-1,3.703152770E-1,1.009291923E0
4.882558750E-1,1.145000234E0,-1.087623042E-1,3.341327065E-1,1.197705907E0
4.982438750E-1,1.425181632E0,-4.715019286E-2,1.801918906E-1,1.437301271E0
5.082318750E-1,1.510538701E0,-5.395342827E-2,-2.415660203E-2,1.511694970E0
5.182198750E-1,1.505148007E0,-1.426302543E-1,-3.106789398E-1,1.543481557E0
5.282088750E-1,1.470941357E0,4.856375724E-2,-4.203177416E-1,1.530586136E0
5.381968750E-1,1.431655084E0,4.149236852E-1,-3.845415527E-1,1.539373298E0
5.481848750E-1,1.261135658E0,5.806328997E-1,-2.700758743E-1,1.414404005E0
5.581728750E-1,1.075755898E0,6.789874524E-1,9.201412439E-2,1.275437695E0
5.681608750E-1,1.055848322E0,7.219846603E-1,4.687560761E-1,1.362281097E0
5.781488750E-1,9.882811137E-1,5.752060989E-1,5.385461032E-1,1.263959462E0
5.881378750E-1,8.977659231E-1,2.784218976E-1,5.573870015E-1,1.092786656E0
5.981258750E-1,7.671540358E-1,1.515569061E-2,5.528057081E-1,9.457003545E-1
6.081138750E-1,6.661309601E-1,-2.310158890E-1,4.807878917E-1,8.533790446E-1
6.181018750E-1,6.447563902E-1,-3.568070394E-1,2.874461979E-1,7.909787498E-1
6.280898750E-1,6.740527678E-1,-3.498769194E-1,5.039247394E-2,7.611178581E-1
6.380778750E-1,6.119375767E-1,-2.527780563E-1,-1.194586158E-2,6.621986462E-1
6.480658750E-1,3.449360953E-1,-2.076413521E-1,-3.144632578E-3,4.026235582E-1
6.580548750E-1,1.716109554E-1,-8.158269167E-2,-1.172600627E-1,2.232845223E-1
6.680428750E-1,3.748357594E-3,8.091172367E-2,-1.655259043E-1,1.842812584E-1
6.780308750E-1,-9.162484601E-2,1.904341659E-1,-2.959644216E-1,3.636691117E-1
6.880188750E-1,-1.239185795E-2,2.818132827E-1,-4.315058041E-1,5.155284118E-1
6.980068750E-1,1.809311979E-1,3.721314222E-1,-2.562852162E-1,4.867237469E-1
7.079948750E-1,2.822934853E-1,3.849371168E-1,-5.653029621E-2,4.806889536E-1
7.179838750E-1,2.599729089E-1,3.765317443E-1,-5.578886926E-2,4.609495263E-1
7.279718750E-1,3.668847886E-1,2.547549999E-1,1.159736753E-2,4.468098668E-1
7.379598750E-1,4.833623477E-1,9.775433600E-2,1.724718118E-1,5.224381258E-1
7.479478750E-1,4.029875446E-1,-4.406374007E-2,2.227426636E-1,4.625525576E-1
7.579358750E-1,2.835629889E-1,-2.780134696E-1,7.174767494E-2,4.035432898E-1
7.679238750E-1,1.342232008E-1,-4.421661553E-1,-5.722611487E-2,4.656195923E-1
7.779118750E-1,-9.790636361E-2,-5.364966542E-1,-6.615949094E-2,5.493554352E-1
7.879008750E-1,-4.013780985E-1,-3.541307688E-1,5.484857851E-1,7.663873928E-1
7.978888750E-1,-3.173976830E-1,-3.406617075E-2,1.305569819E0,1.344029146E0
8.078768750E-1,3.939934306E-2,2.573815691E-1,1.262452451E0,1.289024349E0
8.178648750E-1,1.124101628E-1,4.923256177E-1,5.826458037E-1,7.710361153E-1
8.278528750E-1,-5.893883742E-2,5.212386373E-1,-4.336558253E-1,6.806033194E-1
8.378408750E-1,-2.212323278E-1,3.837138793E-1,-1.276478167E0,1.351138999E0
8.478298750E-1,-2.347222929E-1,-1.474235094E-1,-1.731063516E0,1.753114127E0
8.578178750E-1,-5.013063562E-1,3.100053406E-1,-1.128578694E0,1.273224742E0
8.678058750E-1,-6.025896330E-1,7.000438607E-1,-9.068031603E-1,1.294398565E0
8.777938750E-1,-3.813409330E-1,4.906097522E-1,-1.265246835E0,1.409598663E0
8.877818750E-1,-6.084919587E-1,4.149324560E-1,-1.657813691E0,1.814050066E0
8.977698750E-1,-1.274976456E0,5.050161222E-1,-1.401627293E0,1.960909309E0
9.077578750E-1,-1.259052003E0,3.546713439E-1,-9.943470883E-1,1.643085463E0
9.177468750E-1,-8.841083622E-1,9.313562036E-2,-4.129420638E-1,9.802259882E-1
9.277348750E-1,-4.865892068E-1,3.272452712E-2,2.682211375E-1,5.565811077E-1
9.377228750E-1,-7.932902127E-1,1.532891437E-1,9.439797574E-1,1.242539619E0
9.477100417E-1,-6.989821525E-1,1.456620356E-1,1.137745374E0,1.343226718E0
9.576980417E-1,-5.627463401E-1,2.822538704E-2,9.439341491E-1,1.099314238E0
9.676860417E-1,-3.943418150E-1,-3.105716434E-1,4.803388256E-1,6.947557845E-1
9.776750417E-1,-9.632443596E-2,-6.891138066E-1,1.292562103E-1,7.077170362E-1
9.876630417E-1,-1.648442286E-1,-8.422298728E-1,2.890576905E-1,9.055822032E-1
9.976510417E-1,-4.588232647E-1,-9.924789029E-1,3.999583215E-1,1.164259344E0
1.007639042E0,-7.500620397E-1,-1.068212186E0,1.999548948E-1,1.320474270E0
1.017627042E0,-1.046375759E0,-1.067162026E0,-2.248599404E-1,1.511389762E0
1.027615042E0,-1.136146453E0,-1.108350398E0,-1.057047366E0,1.906992004E0
1.037603042E0,-1.443144717E0,-1.153196496E0,-1.683670664E0,2.499455088E0
1.047592042E0,-1.934637545E0,-9.539492601E-1,-1.402479233E0,2.572895182E0
1.057580042E0,-8.344153614E-1,1.527336583E-1,1.532469268E0,1.751581749E0
1.067568042E0,4.872406597E-1,6.124829757E-1,6.994872057E-1,1.049676715E0
1.077556042E0,2.922399645E-1,5.994524556E-1,7.241647947E-1,9.844603056E-1
1.087544042E0,7.410951152E-1,3.477233899E-1,7.169475764E-1,1.088185349E0
1.097532042E0,1.233356706E0,-4.255540694E-1,-1.003294498E-1,1.308560671E0
1.107520042E0,6.007511953E-1,-1.037041995E0,4.757645488E-2,1.199425537E0
1.117509042E0,2.004643883E-1,-1.305312980E0,-2.206060910E-1,1.338915604E0
1.127497042E0,-1.511663852E-1,4.195592116E-1,-9.661600006E-1,1.064117641E0
1.137485042E0,-2.395271144E-1,7.770734717E-1,-1.723873195E0,1.906031272E0
1.147473042E0,-2.681119773E-1,1.268922395E0,-1.292299563E0,1.830870350E0
1.157461042E0,-1.729858734E-1,1.288577518E0,-8.902298123E-1,1.575711030E0
1.167449042E0,-4.522988318E-1,9.192931053E-1,-7.528512347E-1,1.271400420E0
1.177438042E0,-8.418125278E-1,8.202205145E-1,-6.747640085E-1,1.355255139E0
1.187426042E0,-1.234470308E0,7.217721140E-1,-6.803767508E-1,1.583598576E0
1.197414042E0,-1.470449606E0,5.647023068E-1,-2.257633352E-1,1.591251025E0
1.207402042E0,-1.324936382E0,4.005192156E-1,2.863176852E-1,1.413453174E0
1.217390042E0,-1.337069939E0,4.004420324E-1,2.857756484E-1,1.424702623E0
1.227378042E0,-7.545438574E-1,7.568723649E-2,2.605706406E-1,8.018491437E-1
1.237366042E0,-9.175813329E-1,-1.174379642E-1,-3.544283921E-1,9.906395223E-1
1.247355042E0,-1.038809389E0,-4.476452887E-2,-9.162230247E-1,1.385854769E0
1.257343042E0,-1.219435363E0,4.383793522E-1,-1.209701210E0,1.772731248E0
1.267331042E0,-1.363795808E0,1.113740069E0,-1.125264493E0,2.089635405E0
1.277319042E0,-1.436840834E0,1.655803565E0,-7.905745465E-1,2.330494613E0
1.287307042E0,-1.374246536E0,1.892764757E0,-4.988826853E-1,2.391651292E0
1.297295042E0,-1.349088306E0,1.848880672E0,-7.103729671E-1,2.396461715E0
1.307284042E0,-1.505014252E0,1.608851154E0,-1.032743415E0,2.433110950E0
1.317272042E0,-1.774744848E0,1.671437996E0,-8.107187891E-1,2.569180649E0
1.327260042E0,-1.752304696E0,2.008911071E0,5.687463874E-1,2.725760058E0
1.337248042E0,-1.273833910E0,1.871458234E0,1.714765572E0,2.839970021E0
1.347236042E0,-7.971761260E-1,1.598771139E0,2.203469424E0,2.836694632E0
1.357224042E0,-5.377638920E-1,1.471755874E0,1.876341097E0,2.444567706E0
1.367212042E0,-4.903423152E-1,1.498516826E0,1.871559829E0,2.447187050E0
1.377201042E0,-1.015622621E0,1.794093870E0,7.166055143E-1,2.182609810E0
1.387189042E0,-1.133221018E0,2.249348579E0,1.589594811E-1,2.523693131E0
1.397177042E0,-6.674671950E-1,2.106991974E0,-3.109403104E-1,2.231952399E0
1.407165042E0,-6.073068012E-2,2.115527593E0,-6.488064641E-1,2.213615830E0
1.417153042E0,3.443714004E-1,1.895112706E0,-8.954893827E-2,1.928227902E0
1.427141042E0,1.276725651E-1,8.546505283E-1,-1.621579081E-1,8.792172635E-1
1.437129042E0,3.537339804E-2,8.355122991E-1,-1.589600658E-1,8.512346220E-1
1.447118042E0,-1.038669787E0,1.208616552E-1,6.152925628E-1,1.213271365E0
1.457106042E0,-1.665748363E0,1.952309293E-1,1.782775707E0,2.447676847E0
1.467094042E0,-1.679895994E0,2.388323008E-1,2.465021228E0,2.992560955E0
1.477082042E0,-1.529062973E0,3.652565584E-2,2.911276633E0,3.288601425E0
1.487070042E0,-1.100617455E0,3.507013768E-2,3.070843640E0,3.262310433E0
1.497058042E0,-4.937220059E-1,3.071863979E-1,2.518236153E0,2.584499608E0
1.507046042E0,-3.327888702E-1,3.973932941E-1,1.380175028E0,1.474297450E0
1.517035042E0,-4.376569287E-1,2.483789036E-1,6.565148485E-1,8.271924887E-1
1.527023042E0,-1.538395129E-1,2.708576471E-3,8.889545345E-1,9.021718775E-1
1.537011042E0,1.068522966E0,-3.185853986E-1,1.038149166E0,1.523480119E0
1.546999042E0,2.467631132E0,-1.390213528E0,1.570453366E0,3.238552274E0
1.556987042E0,2.439731143E0,-3.192377725E0,3.312834753E0,5.207536624E0
1.566975042E0,1.281306944E0,-3.294068699E0,1.525863084E0,3.849791453E0
1.576964042E0,-9.971943900E-2,-1.647784547E0,1.247676537E0,2.069259438E0
1.586952042E0,-8.419522762E-2,-1.745533328E0,1.275273641E0,2.163399708E0
1.596940042E0,-1.743689409E-1,-4.028649724E-1,-2.644005668E-1,5.124571916E-1
1.606928042E0,3.411256841E-1,-2.521667299E-1,-6.574849015E-1,7.824584256E-1
1.616916042E0,1.109902249E0,-4.678746083E-1,-5.545049089E-1,1.325995983E0
1.626904042E0,1.575513693E0,-3.412034521E-1,-9.928694969E-1,1.893265177E0
1.636892042E0,1.627947868E0,-2.221269518E-2,-1.471172322E0,2.194323510E0
1.646881042E0,1.565095562E0,-8.357103735E-2,-2.329810798E0,2.807939919E0
1.656869042E0,1.185121270E0,-2.671592832E-1,-3.351740372E0,3.565115710E0
1.666857042E0,6.028330234E-1,-6.573714656E-1,-3.817548282E0,3.920359649E0
1.676845042E0,-3.142556816E-1,-9.540448621E-1,-3.681257286E0,3.815837187E0
1.686833042E0,-5.913251182E-1,-4.751043981E-1,-2.866586949E0,2.965250465E0
1.696821042E0,-6.303212227E-1,-3.602130425E-1,-1.712400958E0,1.859939601E0
1.706809042E0,-5.945378709E-1,-8.065339369E-1,-1.129017820E0,1.509520954E0
1.716798042E0,-2.402503236E-1,-9.992988029E-1,-6.400409031E-1,1.210772759E0
1.726786042E0,1.438599238E-1,-1.082561107E0,-1.309127265E-1,1.099896527E0
1.736774042E0,5.489551704E-1,-9.861700496E-1,2.036912656E-1,1.146897239E0
1.746762042E0,9.540906896E-1,-9.035205334E-1,4.596659946E-1,1.392095983E0
1.756750042E0,1.018733486E0,-7.962863991E-1,4.339435083E-1,1.363890360E0
1.766738042E0,9.693311649E-1,-7.649865460E-1,2.319830185E-1,1.256432825E0
1.776726042E0,1.044228443E0,-6.426534390E-1,-1.726823115E-1,1.238238936E0
1.786715042E0,1.215785384E0,-2.193875313E-1,-5.338940585E-1,1.345848378E0
1.796703042E0,1.239155974E0,9.092771173E-2,-6.931757212E-1,1.422767710E0
1.806691042E0,9.369414639E-1,4.759010813E-1,-7.383670968E-1,1.284339175E0
1.816679042E0,4.958632562E-1,6.829498181E-1,-8.878932649E-1,1.225012356E0
1.826667042E0,1.532123990E-2,1.297125855E-1,-1.260128767E0,1.266879870E0
1.836655042E0,-1.599576739E-1,-4.210784644E-2,-1.480196915E0,1.489410096E0
1.846643042E0,-2.645321657E-1,3.174979627E-2,-1.723601300E0,1.744071890E0
1.856632042E0,-4.391809690E-1,3.084596291E-1,-2.159363877E0,2.225057217E0
1.866620042E0,-4.270669634E-1,6.339729550E-1,-2.295599908E0,2.419522027E0
1.876608042E0,-1.034465273E-1,8.505020750E-1,-2.057146946E0,2.228431852E0
1.886596042E0,5.360655682E-1,1.163006369E0,-1.204055724E0,1.757754333E0
1.896584042E0,6.604188151E-1,1.188539406E0,-4.361753905E-1,1.427945343E0
1.906572042E0,4.573650787E-1,1.034269538E0,-3.177488083E-1,1.174674677E0
1.916560042E0,2.452807929E-1,8.583696498E-1,-5.772038001E-1,1.063073539E0
1.926549042E0,8.575464349E-2,8.628585573E-1,-8.143744683E-1,1.189573253E0
1.936537042E0,7.911388759E-2,8.551159666E-1,-1.146134375E0,1.432168401E0
1.946526042E0,1.141890319E-1,8.249994439E-1,-1.446354985E0,1.669013469E0
1.956514042E0,9.556864679E-2,8.534347460E-1,-1.655385928E0,1.864882517E0
1.966502042E0,4.530712490E-1,8.408037369E-1,-1.124566335E0,1.475423303E0
1.976490042E0,5.786989697E-1,9.544942206E-1,-8.202667075E-1,1.385203662E0
1.986478042E0,6.443467196E-1,1.055458678E0,-5.999424523E-1,1.374447766E0
1.996467042E0,5.527264783E-1,1.069258253E0,-5.030073112E-1,1.304544414E0
2.006455042E0,3.861644474E-1,1.058920083E0,-3.871704608E-1,1.191778373E0
2.016443042E0,3.981025614E-2,9.625931990E-1,-3.744779098E-1,1.033636410E0
2.026431042E0,-3.509345345E-1,8.037135324E-1,-4.059721828E-1,9.663973835E-1
2.036419042E0,-6.666617411E-1,7.010637613E-1,-2.946493828E-1,1.011309316E0
2.046407042E0,-8.181903613E-1,6.109996833E-1,-2.078585762E-1,1.042094654E0
2.056395042E0,-8.110758347E-1,6.096248567E-1,-9.880800426E-2,1.019435872E0
2.066384042E0,-7.207028045E-1,6.855787262E-1,-1.927821153E-1,1.013210573E0
2.076372042E0,-5.704772728E-1,9.412002835E-1,-2.814691740E-1,1.136013727E0
2.086360042E0,-3.346707965E-1,1.094588830E0,3.965172350E-2,1.145295380E0
2.096348042E0,6.689470522E-2,1.120461151E0,3.763934577E-1,1.183883494E0
2.106336042E0,3.634581741E-2,1.108852528E0,3.776751673E-1,1.171969914E0
2.116324042E0,5.097916163E-1,1.059708581E0,6.927441967E-1,1.364831231E0
2.126313042E0,7.563393912E-1,1.018949248E0,1.228015274E0,1.765878920E0
2.136301042E0,6.218692186E-1,8.986857632E-1,1.662432992E0,1.989482566E0
2.146289042E0,5.110165349E-1,6.506850283E-1,2.097162366E0,2.254466432E0
2.156277042E0,3.493283775E-1,3.480313919E-1,2.489272555E0,2.537643398E0
2.166265042E0,2.349085632E-1,2.276335672E-2,2.955417264E0,2.964825696E0
2.176253042E0,9.888102137E-2,-2.336126375E-1,3.420948016E0,3.430340748E0
2.186241042E0,-5.973223150E-3,-4.009924015E-1,3.417035644E0,3.440488799E0
2.196230042E0,-6.143483106E-2,-3.862911858E-1,2.889517974E0,2.915871952E0
2.206218042E0,-1.433759936E-1,-2.448321287E-1,2.071428185E0,2.090768799E0
2.216206042E0,-9.170904592E-2,-2.610297932E-1,2.078185812E0,2.096521732E0
2.226194042E0,-4.352782083E-1,6.036884710E-2,3.358740073E-1,5.531029426E-1
2.236182042E0,-5.190586491E-1,1.526531129E-1,4.182337940E-2,5.426546315E-1
2.246170042E0,-5.391197882E-1,1.187502256E-1,1.567708683E-1,5.738718213E-1
2.256158042E0,-4.933728540E-1,-1.163452658E-1,4.910164261E-1,7.057266642E-1
2.266147042E0,-3.573720997E-1,-4.080286485E-1,1.066482434E0,1.196489439E0
2.276135042E0,-1.724549279E-1,-8.039294408E-1,1.472948706E0,1.686896896E0
2.286123042E0,-1.188867215E-1,-1.152027491E0,1.683997523E0,2.043807489E0
2.296111042E0,-1.064322253E-1,-1.346534681E0,1.756716421E0,2.215972935E0
2.306099042E0,-1.033622544E-1,-1.441781731E0,1.791633654E0,2.302035939E0
2.316087042E0,-1.014825938E-1,-1.519407173E0,1.747799417E0,2.318124172E0
2.326075042E0,-2.159457871E-1,-1.497772622E0,1.345550741E0,2.024959803E0
2.336064042E0,-5.185006420E-1,-1.419490683E0,6.188213575E-1,1.633014571E0
2.346052042E0,-7.499694344E-1,-1.273234132E0,-2.019891411E-1,1.491435188E0
2.356040042E0,-8.674182891E-1,-1.112090570E0,-9.115253717E-1,1.679297004E0
2.366028042E0,-8.496971326E-1,-1.146876533E0,-9.017330396E-1,1.688322680E0
2.376016042E0,-6.454699697E-1,-5.538846655E-1,-1.488513994E0,1.714378492E0
2.386004042E0,-2.720488711E-1,-2.608377121E-1,-1.294077702E0,1.347844204E0
2.395992042E0,9.134512983E-2,-1.584281154E-1,-7.345453566E-1,7.569678206E-1
2.405981042E0,2.750679347E-1,-3.161916947E-1,-2.099986571E-1,4.687632585E-1
2.415969042E0,3.258590060E-1,-5.571172987E-1,4.302229249E-1,7.756645805E-1
2.425957042E0,3.014686250E-1,-5.402023271E-1,4.245236439E-1,7.502814207E-1
2.435945042E0,2.459498971E-1,-7.313141853E-1,1.086803262E0,1.332836494E0
2.445933042E0,1.957871456E-1,-8.482867111E-1,1.500941666E0,1.735150955E0
2.455921042E0,8.112865537E-2,-1.017568136E0,1.499096870E0,1.813647759E0
2.465909042E0,-7.346131112E-2,-1.087780332E0,1.058975778E0,1.519898784E0
2.475898042E0,-2.297682394E-1,-9.293630339E-1,2.621833026E-1,9.925971876E-1
2.485886042E0,-1.950478018E-1,-7.014233650E-1,-5.314785737E-1,9.013921767E-1
2.495874042E0,-6.095912352E-2,-5.489716887E-1,-9.987512112E-1,1.141310611E0
2.505862042E0,5.870787241E-2,-5.199078110E-1,-1.293510522E0,1.395320829E0
2.515850042E0,2.556485275E-1,-4.836933732E-1,-1.354003476E0,1.460356416E0
2.525838042E0,3.281210745E-1,-3.449927402E-1,-1.461529679E0,1.537124729E0
2.535826042E0,3.390266068E-1,-2.071615881E-1,-1.822960111E0,1.865754146E0
2.545815042E0,4.203062665E-1,-6.487485766E-2,-2.295734394E0,2.334793891E0
2.555803042E0,3.794797643E-1,-8.404524654E-2,-2.841413516E0,2.867873648E0
2.565791042E0,1.846094986E-1,-3.609494993E-1,-3.015585698E0,3.042716272E0
2.575779042E0,-1.692268264E-2,-3.674545267E-1,-2.468604986E0,2.495860530E0
2.585767042E0,1.173959374E-1,-4.823251247E-2,-1.909750333E0,1.913963040E0
2.595755042E0,4.246178571E-1,2.602177611E-1,-1.699172802E0,1.770650112E0
2.605743042E0,4.641387857E-1,4.732691033E-1,-1.972663450E0,2.081059717E0
2.615732042E0,3.583980668E-1,5.137813908E-1,-2.206884198E0,2.294070260E0
2.625720042E0,4.792334095E-2,3.721910638E-1,-2.247741033E0,2.278851155E0
2.635708042E0,-2.460248145E-1,3.675531985E-1,-2.214562762E0,2.258298428E0
2.645696042E0,-5.510374369E-1,5.510114899E-1,-2.060312628E0,2.202758281E0
2.655684042E0,-5.923036132E-1,5.942925802E-1,-1.735813209E0,1.927966478E0
2.665672042E0,-1.824951819E-1,8.267465919E-1,-8.416090447E-1,1.193783985E0
2.675660042E0,-7.464603011E-2,8.938822755E-1,6.828144550E-2,8.995887439E-1
2.685649042E0,-3.042574910E-2,6.187232704E-1,6.193464375E-1,8.759761533E-1
2.695637042E0,9.357341236E-2,3.087075511E-1,8.941860384E-1,9.505919244E-1
2.705625042E0,-9.874458024E-2,1.655935858E-1,7.330320972E-1,7.579629169E-1
2.715613042E0,-3.303647608E-1,5.161454201E-2,2.926046115E-1,4.443223996E-1
2.725601042E0,-4.120889550E-1,4.185320020E-2,-1.165706760E-1,4.302995698E-1
2.735589042E0,-4.842640249E-1,3.744498432E-2,-3.949466729E-1,6.260164911E-1
2.745577042E0,-3.842198462E-1,8.847158879E-2,-6.272974813E-1,7.409144635E-1
2.755566042E0,-3.207134197E-1,2.667789218E-1,-6.585970420E-1,7.796012791E-1
2.765554042E0,-2.128417561E-1,5.092448285E-1,-4.196868271E-1,6.933750366E-1
2.775542042E0,-1.692465424E-1,5.503235650E-1,1.089804053E-2,5.758638603E-1
2.785530042E0,-7.559549002E-2,5.189000434E-1,6.298942298E-1,8.195966531E-1
2.795518042E0,2.571079195E-2,4.762592232E-1,1.105201526E0,1.203725179E0
2.805506042E0,-1.287117980E-1,2.351861233E-1,1.179529577E0,1.209615337E0
2.815494042E0,-4.049761827E-1,-9.859604269E-2,7.825773096E-1,8.866533334E-1
2.825483042E0,-4.751243518E-1,4.048436701E-2,2.813452131E-1,5.536580736E-1
2.835471042E0,-6.531268255E-1,3.724623746E-1,-2.713382882E-1,7.993293047E-1
2.845459042E0,-8.344932756E-1,6.567820662E-1,-6.402005321E-1,1.239999367E0
2.855447042E0,-7.948685955E-1,8.445800149E-1,-5.726283538E-1,1.293458433E0
2.865435042E0,-8.324354942E-1,8.669336280E-1,-5.776084274E-1,1.333474508E0
2.875423042E0,1.817349343E-2,9.816887435E-1,3.749106038E-1,1.051000012E0
2.885411042E0,3.689014933E-1,1.020287091E0,8.400425756E-1,1.372131768E0
2.895400042E0,3.016249649E-1,8.659224983E-1,1.308882852E0,1.598115675E0
2.905388042E0,1.800411421E-1,4.939438346E-1,1.898761076E0,1.970200231E0
2.915376042E0,1.525900360E-2,2.953516334E-2,2.428022386E0,2.428249960E0
2.925364042E0,2.072887650E-1,-4.107059424E-1,2.993673842E0,3.028816778E0
2.935352042E0,3.562607998E-1,-7.574673191E-1,3.504233417E0,3.602822551E0
2.945340000E0,5.117652708E-1,-8.967566206E-1,4.137552361E0,4.264436149E0
2.955328000E0,6.924272045E-1,-9.684073779E-1,4.540476975E0,4.693953498E0
2.965316000E0,8.022544328E-1,-1.017393158E0,4.492784160E0,4.675875375E0
2.975305000E0,5.967761119E-1,-1.110300591E0,3.819233449E0,4.021871861E0
2.985293000E0,2.045304141E-1,-1.163274757E0,2.617038310E0,2.871224541E0
2.995281000E0,-8.833929554E-2,-1.119830383E0,1.294029754E0,1.713574312E0
3.005269000E0,-1.949604224E-1,-9.710335086E-1,2.310924876E-1,1.017014935E0
3.015257000E0,-1.435017818E-1,-7.609683394E-1,-4.235284477E-1,8.826335146E-1
3.025245000E0,5.553349212E-2,-5.468538272E-1,-8.170793903E-1,9.847597713E-1
3.035234000E0,3.449954079E-1,-4.102213544E-1,-1.030952412E0,1.161966552E0
3.045222000E0,6.166380803E-1,-2.187697729E-1,-1.050373939E0,1.237492686E0
3.055210000E0,9.249489708E-1,-7.500662059E-2,-9.502064574E-1,1.328175027E0
3.065198000E0,1.299418987E0,-6.712223500E-2,-8.589121252E-1,1.559078297E0
3.075186000E0,1.493082131E0,-2.022361860E-1,-9.210054624E-1,1.765911886E0
3.085174000E0,1.289452846E0,-1.986357629E-1,-9.601508170E-1,1.619887157E0
3.095162000E0,1.076803281E0,-9.353176922E-2,-7.775545514E-1,1.331482098E0
3.105150000E0,1.106506479E0,-1.063199222E-1,-7.749291515E-1,1.355055609E0
3.115139000E0,5.602870012E-1,-3.251870513E-1,-6.618861008E-1,9.261540652E-1
3.125127000E0,3.011119997E-1,-5.293060407E-1,-7.156161654E-1,9.396487733E-1
3.135115000E0,8.337775033E-2,-6.890408626E-1,-7.016617852E-1,9.869439804E-1
3.145103000E0,-5.140307380E-2,-8.171273375E-1,-6.743669826E-1,1.060712114E0
3.155091000E0,-1.410538815E-1,-8.803632206E-1,-7.237934965E-1,1.148395674E0
3.165079000E0,-1.450089382E-1,-8.286606780E-1,-9.071896613E-1,1.237214287E0
3.175067000E0,-1.258277777E-1,-6.945618036E-1,-1.135526356E0,1.337037335E0
3.185056000E0,-1.440689983E-1,-4.413425750E-1,-1.394239921E0,1.469504713E0
3.195044000E0,-1.501703303E-1,-1.799656034E-1,-1.629214960E0,1.645989104E0
3.205032000E0,-1.260799571E-1,8.384322524E-3,-1.795399845E0,1.799840842E0
3.215020000E0,-1.105397207E-1,5.145257413E-3,-1.794322788E0,1.797731841E0
3.225008000E0,2.559472471E-3,7.940284967E-2,-1.784417020E0,1.786184611E0
3.234996000E0,8.492830401E-2,8.941094398E-2,-1.669579459E0,1.674127445E0
3.244984000E0,1.398060766E-1,1.468352795E-1,-1.501957912E0,1.515580387E0
3.254973000E0,2.072906288E-1,2.372636390E-1,-1.320705922E0,1.357765654E0
3.264961000E0,2.713007746E-1,3.500891733E-1,-1.260710565E0,1.336247608E0
3.274949000E0,2.862129835E-1,3.578127605E-1,-1.262579920E0,1.343151480E0
3.284937000E0,3.169747831E-1,4.353292984E-1,-1.370403162E0,1.472409398E0
3.294925000E0,3.333521032E-1,5.956348085E-1,-1.491455144E0,1.640226477E0
3.304913000E0,4.213709348E-1,7.613671196E-1,-1.569081025E0,1.794226468E0
3.314901000E0,5.454893795E-1,8.278751045E-1,-1.575030566E0,1.861090309E0
3.324890000E0,6.170438039E-1,8.207745382E-1,-1.373233214E0,1.714696288E0
3.334878000E0,6.775812701E-1,7.144139779E-1,-1.105792680E0,1.480635391E0
3.344866000E0,5.830420256E-1,5.188959503E-1,-9.405024183E-1,1.222184851E0
3.354854000E0,3.656743419E-1,3.675480822E-1,-8.795095271E-1,1.020953635E0
3.364842000E0,1.346789912E-1,2.501748759E-1,-7.894121200E-1,8.389859322E-1
3.374830000E0,3.001507357E-2,1.697192350E-1,-6.334949452E-1,6.565221770E-1
3.384818000E0,3.543379795E-2,2.233833723E-1,-5.092082834E-1,5.571792898E-1
3.394807000E0,1.184093329E-1,3.620356196E-1,-5.245543009E-1,6.482652039E-1
3.404795000E0,2.343094794E-1,5.700466619E-1,-5.450973237E-1,8.227911164E-1
3.414783000E0,2.682174465E-1,7.614964892E-1,-6.513529265E-1,1.037341861E0
3.424771000E0,1.890747613E-1,8.280790262E-1,-8.587542504E-1,1.207858850E0
3.434759000E0,-3.977444194E-2,6.952203463E-1,-1.023559193E0,1.237976881E0
3.444747000E0,-4.588956971E-1,3.252304669E-1,-1.198710199E0,1.324109610E0
3.454735000E0,-6.509393822E-1,2.882272397E-1,-1.224373044E0,1.416293180E0
3.464724000E0,-5.477200191E-1,6.429263578E-1,-6.585871017E-1,1.071022171E0
3.474712000E0,-3.134982845E-1,9.664601089E-1,1.903204376E-1,1.033706044E0
3.484700000E0,1.396694070E-1,1.047973511E0,1.084225810E0,1.514365091E0
3.494688000E0,7.764409491E-1,9.548459306E-1,1.744118010E0,2.134605100E0
3.504676000E0,1.290984671E0,7.785246044E-1,2.074396232E0,2.564344303E0
3.514664000E0,1.526189651E0,6.240557849E-1,2.095860191E0,2.666707786E0
3.524652000E0,1.505928610E0,5.636699809E-1,2.034445716E0,2.593166828E0
3.534641000E0,1.227437716E0,4.678512195E-1,1.969713530E0,2.367542925E0
3.544629000E0,8.198977482E-1,2.652438815E-1,1.938621545E0,2.121518355E0
3.554617000E0,4.599088003E-1,1.045037770E-1,2.008777608E0,2.063401227E0
3.564605000E0,1.205044634E-1,-5.352044195E-2,1.995180493E0,1.999532686E0
3.574593000E0,-2.430564572E-1,-1.466684876E-1,1.851283439E0,1.872922438E0
3.584581000E0,-5.116976259E-1,-2.008492264E-1,1.639503136E0,1.729203691E0
3.594569000E0,-6.755767715E-1,-2.234558778E-1,1.399156845E0,1.569705826E0
3.604557000E0,-6.540892772E-1,-2.043695426E-1,1.216054795E0,1.395847039E0
3.614546000E0,-4.933549834E-1,-2.134524612E-1,1.083122440E0,1.209179603E0
3.624534000E0,-3.113371536E-1,-2.392060840E-1,1.081861196E0,1.150901395E0
3.634522000E0,-1.216389694E-1,-3.012903580E-1,1.069526494E0,1.117791949E0
3.644510000E0,-1.385475822E-2,-4.202500601E-1,1.177050943E0,1.249900392E0
3.654498000E0,2.616910402E-1,-6.222178589E-1,1.517932506E0,1.661251443E0
3.664486000E0,4.986953551E-1,-6.586265704E-1,1.622588895E0,1.820791240E0
3.674474000E0,7.083892992E-1,-6.727135362E-1,1.647954701E0,1.915754055E0
3.684463000E0,7.874101795E-1,-7.116961920E-1,1.563833733E0,1.890000584E0
3.694451000E0,6.858593926E-1,-7.520215148E-1,1.442899280E0,1.765757004E0
3.704439000E0,4.234416531E-1,-7.593518767E-1,1.250008407E0,1.522642152E0
3.714427000E0,1.482471262E-1,-7.971285443E-1,1.069408965E0,1.342023346E0
3.724415000E0,-1.044212399E-1,-8.316139604E-1,8.101586258E-1,1.165694031E0
3.734403000E0,-2.493235030E-1,-8.196198593E-1,4.303088790E-1,9.586994598E-1
3.744391000E0,-3.217052536E-1,-7.477662036E-1,2.520325363E-2,8.144223532E-1
3.754380000E0,-3.186812564E-1,-6.118922608E-1,-2.849430048E-1,7.464331169E-1
3.764368000E0,-2.614990322E-1,-3.617501293E-1,-5.864850855E-1,7.370275812E-1
3.774356000E0,-2.729484652E-1,-3.922610468E-1,-5.790450883E-1,7.507748049E-1
3.784344000E0,-1.957806772E-1,-1.455513771E-1,-8.247912830E-1,8.601139096E-1
3.794332000E0,-2.872727366E-1,-2.248152092E-1,-6.049312967E-1,7.064059578E-1
3.804320000E0,-3.377864123E-1,-2.858244726E-1,-3.278294080E-1,5.506972038E-1
3.814308000E0,-3.157442000E-1,-3.190737873E-1,-1.407208461E-1,4.704304817E-1
3.824297000E0,-2.220288282E-1,-3.152307048E-1,1.775799394E-2,3.859825698E-1
3.834285000E0,-1.108082724E-1,-3.138203564E-1,1.004762149E-1,3.476451626E-1
3.844273000E0,-2.012472756E-2,-2.966831906E-1,8.929166079E-2,3.104817562E-1
3.854261000E0,6.806679787E-3,-2.770077485E-1,-4.178595722E-2,2.802243562E-1
3.864249000E0,-7.963094590E-2,-2.545288588E-1,-2.783543622E-1,3.854960162E-1
3.874237000E0,-1.532150851E-1,-1.544726202E-1,-6.283593357E-1,6.649602299E-1
3.884225000E0,-2.943237295E-1,-1.862633470E-1,-8.873769557E-1,9.532881798E-1
3.894213000E0,-4.664163858E-1,-2.844679186E-1,-1.054893252E0,1.187967178E0
3.904202000E0,-6.240562235E-1,-3.411271459E-1,-1.217238856E0,1.409781661E0
3.914190000E0,-7.125081510E-1,-3.490229335E-1,-1.374301500E0,1.586880426E0
3.924178000E0,-6.160195910E-1,-1.866124257E-1,-1.661133741E0,1.781479620E0
3.934166000E0,-3.580798686E-1,-4.311502934E-2,-1.976362984E0,2.009002424E0
3.944153792E0,-1.501070342E-1,4.796704888E-2,-2.221294661E0,2.226877395E0
3.954141792E0,3.414119784E-2,1.363310489E-1,-2.299878316E0,2.304168406E0
3.964129792E0,1.272022845E-1,2.496571049E-1,-2.424484236E0,2.440621417E0
3.974118792E0,7.501546450E-2,3.539670467E-1,-2.470364998E0,2.496722494E0
3.984106792E0,-5.842563462E-2,4.086516693E-1,-2.356642501E0,2.392524528E0
3.994094792E0,-8.176068457E-2,4.596326655E-1,-2.094570295E0,2.145966383E0
4.004082792E0,-1.312921012E-2,4.341709650E-1,-1.839584915E0,1.890171808E0
4.014070792E0,6.278515415E-2,4.178496319E-1,-1.456325072E0,1.516384848E0
4.024058792E0,7.800622394E-2,3.957085651E-1,-9.659512550E-1,1.046772213E0
4.034046792E0,-1.906492703E-1,4.359320001E-1,-4.617031646E-1,6.629884352E-1
4.044035792E0,-6.692211404E-1,4.648919436E-1,-2.336687708E-1,8.476924846E-1
4.054023792E0,-1.113392891E0,4.264236966E-1,-2.190437150E-1,1.212213285E0
4.064011792E0,-1.450600648E0,3.134723009E-1,-2.643742543E-1,1.507448463E0
4.073999792E0,-1.553892882E0,2.755193397E-1,-3.131569898E-1,1.608900648E0
4.083987792E0,-1.439114085E0,4.059949869E-1,-3.715595645E-1,1.540758836E0
4.093975792E0,-1.202852074E0,6.481533301E-1,-4.515331024E-1,1.439040651E0
4.103963792E0,-8.778451172E-1,9.793478107E-1,-4.673217541E-1,1.395752057E0
4.113952792E0,-4.999701943E-1,1.290132000E0,-3.435256737E-1,1.425629918E0
4.123940792E0,-5.672138687E-1,1.256723641E0,-3.335462308E-1,1.418569340E0
4.133928792E0,-1.269612330E-1,1.494520254E0,-1.240551120E-1,1.505024789E0
4.143916792E0,3.196498112E-1,1.581015192E0,9.256844044E-2,1.615658985E0
4.153904792E0,5.495207423E-1,1.511511970E0,3.288029695E-1,1.641570247E0
4.163892792E0,5.630117672E-1,1.284110830E0,7.111611718E-1,1.572155554E0
4.173880792E0,4.592368456E-1,9.572970834E-1,1.132230865E0,1.552180054E0
4.183868792E0,3.391826543E-1,5.834714305E-1,1.401852411E0,1.555851524E0
4.193857792E0,1.772029401E-1,2.506578559E-1,1.397871042E0,1.431179127E0
4.203845792E0,1.700026788E-2,7.985630125E-2,1.270869518E0,1.273489446E0
4.213833792E0,-8.116567556E-2,6.544262230E-2,1.093726366E0,1.098684653E0
4.223821792E0,-2.162198022E-1,1.017579246E-1,1.003241288E0,1.031309246E0
4.233809792E0,-3.236054160E-1,1.036565155E-1,1.034554882E0,1.088930183E0
4.243797792E0,-4.580363391E-1,1.849766672E-3,1.077733061E0,1.171029146E0
4.253785792E0,-5.267670700E-1,-1.351195058E-1,1.144038148E0,1.266713903E0
4.263774792E0,-4.809202946E-1,-2.870661288E-1,1.147786213E0,1.277147009E0
4.273762792E0,-3.936780098E-1,-4.136197561E-1,1.166165181E0,1.298462517E0
4.283750792E0,-2.157135795E-1,-4.548543209E-1,1.221412598E0,1.321088013E0
4.293738792E0,-5.970007181E-4,-3.836457592E-1,1.337840018E0,1.391761595E0
4.303726792E0,1.082400016E-1,-3.311308922E-1,1.569424256E0,1.607624353E0
4.313714792E0,8.769412838E-2,-3.812970789E-1,1.924725637E0,1.964089230E0
4.323702792E0,1.354518469E-1,-5.640787013E-1,2.220022892E0,2.294566108E0
4.333691792E0,3.040612804E-1,-7.660488389E-1,2.438326349E0,2.573853040E0
4.343679792E0,4.865311000E-1,-9.749246845E-1,2.542889183E0,2.766491650E0
4.353667792E0,6.406990803E-1,-1.171415689E0,2.334840572E0,2.689645056E0
4.363655792E0,7.396265870E-1,-1.399211078E0,1.937008299E0,2.501367681E0
4.373643792E0,6.870244503E-1,-1.538495263E0,1.388230153E0,2.183152131E0
4.383631792E0,4.386171146E-1,-1.559033900E0,7.136596870E-1,1.769825365E0
4.393619792E0,1.052143599E-1,-1.506430448E0,1.809742481E-1,1.520905794E0
4.403608792E0,-1.679305717E-1,-1.356340462E0,-1.265436870E-1,1.372542688E0
4.413596792E0,-2.615283779E-1,-1.143321718E0,-2.248131627E-1,1.194203752E0
4.423584792E0,-9.383527625E-2,-9.470935459E-1,-2.899540687E-1,9.949193966E-1
4.433572792E0,2.756030280E-1,-7.423394027E-1,-3.722202998E-1,8.749701535E-1
4.443560792E0,7.399210674E-1,-5.465401241E-1,-4.977442324E-1,1.045915204E0
4.453548792E0,1.042451839E0,-5.160887021E-1,-6.292083514E-1,1.322481204E0
4.463536792E0,1.152074634E0,-5.780320582E-1,-7.620249313E-1,1.497357345E0
4.473525792E0,1.161431422E0,-7.268328792E-1,-8.150580078E-1,1.594217218E0
4.483513792E0,1.083646351E0,-8.193902099E-1,-8.491905445E-1,1.602128057E0
4.493501792E0,1.053668334E0,-6.851337531E-1,-8.253765893E-1,1.503619543E0
4.503489792E0,9.275653075E-1,-5.017533758E-1,-8.727501458E-1,1.368877886E0
4.513477792E0,4.237862003E-1,-3.931945547E-1,-1.261160801E0,1.387343962E0
4.523465792E0,1.722700828E-1,-4.498374099E-1,-1.532701988E0,1.606613227E0
4.533453792E0,-1.938858138E-2,-5.469514757E-1,-1.749496863E0,1.833104228E0
4.543441792E0,-1.563143835E-1,-5.489415756E-1,-1.836813920E0,1.923449093E0
4.553430792E0,-2.233466079E-1,-4.531963429E-1,-1.848867370E0,1.916658860E0
4.563418792E0,-2.389618166E-1,-2.759149039E-1,-1.867179680E0,1.902522468E0
4.573406792E0,-1.192104289E-1,-3.923452467E-2,-1.909957325E0,1.914076137E0
4.583394792E0,7.566754782E-2,2.659740525E-1,-1.900852625E0,1.920861390E0
4.593382792E0,1.906404264E-1,4.619630733E-1,-1.796623083E0,1.864834619E0
4.603370792E0,1.920200952E-1,4.713575023E-1,-1.660953062E0,1.737185852E0
4.613358792E0,1.014489083E-1,4.013536133E-1,-1.443571125E0,1.501757037E0
4.623347792E0,-2.424678619E-2,3.320706859E-1,-1.260510006E0,1.303742429E0
4.633335792E0,-5.619478480E-2,2.859750384E-1,-1.089014094E0,1.127338137E0
4.643323792E0,2.411118560E-2,2.587445551E-1,-8.691634637E-1,9.071798172E-1
4.653311792E0,2.253492793E-1,2.732352711E-1,-6.584625560E-1,7.476715514E-1
4.663299792E0,4.793871912E-1,3.464381719E-1,-4.710780054E-1,7.561388584E-1
4.673287792E0,6.733801188E-1,4.097310653E-1,-3.272651517E-1,8.534768947E-1
4.683275792E0,7.130523806E-1,4.310605386E-1,-2.638801646E-1,8.740077956E-1
4.693264792E0,5.945933463E-1,3.713211443E-1,-2.038339376E-1,7.300471997E-1
4.703252792E0,4.811956619E-1,3.054136683E-1,-2.187805903E-1,6.104848242E-1
4.713240792E0,4.523373504E-1,2.795210280E-1,-3.656877905E-1,6.453438182E-1
4.723228792E0,5.295813715E-1,3.465393287E-1,-6.436199838E-1,9.026586392E-1
4.733216792E0,6.433606598E-1,4.919929111E-1,-9.369385403E-1,1.238476399E0
4.743204792E0,7.343044513E-1,7.345772240E-1,-1.203573913E0,1.589778881E0
4.753192792E0,7.142221892E-1,9.165742962E-1,-1.427398311E0,1.840567227E0
4.763181792E0,6.050625667E-1,1.046591522E0,-1.603228179E0,2.007933046E0
4.773169792E0,6.282646839E-1,1.047304736E0,-1.602803087E0,2.015078524E0
4.783157792E0,4.291703530E-1,1.188249092E0,-1.700443402E0,2.118402903E0
4.793145792E0,2.977002224E-1,1.242923920E0,-1.616722968E0,2.060892634E0
4.803133792E0,1.600650434E-1,1.223851765E0,-1.499701472E0,1.942302362E0
4.813121792E0,3.211904794E-2,1.220945114E0,-1.281832463E0,1.770545980E0
4.823109792E0,-4.564972423E-2,1.221128570E0,-1.036689700E0,1.602486947E0
4.833097792E0,-1.257167811E-1,1.272144065E0,-7.064489007E-1,1.460556497E0
4.843086792E0,-1.514675351E-1,1.260033896E0,-2.729129434E-1,1.298117602E0
4.853074792E0,-9.539602602E-2,1.229934038E0,1.979329276E-1,1.249406093E0
4.863062792E0,6.368421838E-2,1.155215539E0,7.070996958E-1,1.355938273E0
4.873050792E0,2.173828682E-1,1.034168820E0,1.341272918E0,1.707563615E0
4.883038792E0,2.449496578E-1,9.133173971E-1,2.060634225E0,2.267236735E0
4.893026792E0,6.161720937E-2,8.166563442E-1,2.650494908E0,2.774139060E0
4.903014792E0,-2.413270519E-1,7.129878420E-1,3.117057694E0,3.206655434E0
4.913003792E0,-5.510325399E-1,5.329637665E-1,3.514005868E0,3.596654623E0
4.922991792E0,-7.866384932E-1,2.805445831E-1,3.753652248E0,3.845440232E0
4.932979792E0,-9.403793344E-1,5.083057657E-2,3.688911876E0,3.807225744E0
4.942967417E0,-8.908063477E-1,-3.217518121E-2,3.523329254E0,3.634339035E0
4.952955417E0,-7.485684416E-1,1.702256039E-2,3.262556884E0,3.347375375E0
4.962943417E0,-7.520440266E-1,-5.297138840E-3,3.266653444E0,3.352107247E0
4.972931417E0,-4.351460978E-1,6.811538458E-2,2.986766526E0,3.019067093E0
4.982920417E0,9.076874055E-2,1.159425388E-1,2.747152306E0,2.751095678E0
4.992908417E0,6.223426238E-1,1.708306445E-1,2.704775780E0,2.780702334E0
5.002896417E0,9.619862580E-1,1.375092629E-1,2.756079835E0,2.922379581E0
5.012884417E0,1.008787518E0,-3.277846768E-2,2.721149738E0,2.902306425E0
5.022872417E0,8.336739345E-1,-3.232212174E-1,2.644383398E0,2.791459787E0
5.032860417E0,6.032685313E-1,-7.100271043E-1,2.542030227E0,2.707395258E0
5.042848417E0,4.154760643E-1,-1.081962499E0,2.325504323E0,2.598313600E0
5.052836417E0,3.213386332E-1,-1.350299411E0,1.975835565E0,2.414641422E0
5.062825417E0,3.272436267E-1,-1.547365635E0,1.487713510E0,2.171340666E0
5.072813417E0,3.465539102E-1,-1.618062712E0,9.104126465E-1,1.888670892E0
5.082801417E0,3.711701399E-1,-1.573456788E0,2.814685893E-1,1.640962554E0
5.092789417E0,4.254413278E-1,-1.439658753E0,-2.142829120E-1,1.516421714E0
5.102777417E0,4.537687853E-1,-1.292188028E0,-6.089419019E-1,1.498821620E0
5.112765417E0,4.255379896E-1,-1.223580161E0,-8.644184482E-1,1.557385709E0
5.122753417E0,3.415234409E-1,-1.153853576E0,-1.034746671E0,1.587046631E0
5.132742417E0,2.747936089E-1,-1.135057702E0,-1.203772718E0,1.677181049E0
5.142730417E0,1.657508942E-1,-1.184261729E0,-1.315199014E0,1.777553838E0
5.152718417E0,7.580440007E-2,-1.236774988E0,-1.343662675E0,1.827782280E0
5.162706417E0,5.648593046E-3,-1.282812456E0,-1.313445434E0,1.835968031E0
5.172694417E0,-6.061751822E-2,-1.288786848E0,-1.238303450E0,1.788306869E0
5.182682417E0,-1.184636572E-1,-1.281675319E0,-1.089953157E0,1.686630708E0
5.192670417E0,-1.347332972E-1,-1.261555780E0,-1.015466647E0,1.625068786E0
5.202659417E0,-1.072623106E-1,-1.190440482E0,-1.026237218E0,1.575378231E0
5.212647417E0,-6.586413346E-2,-1.067607584E0,-1.155906826E0,1.574879243E0
5.222635417E0,-5.675983597E-2,-9.233846945E-1,-1.348486043E0,1.635321247E0
5.232623417E0,-9.862315916E-3,-7.332908365E-1,-1.567156706E0,1.730258032E0
5.242611417E0,8.576896917E-2,-5.853118417E-1,-1.781314487E0,1.876972981E0
5.252599417E0,2.115822293E-1,-3.937437545E-1,-2.050858265E0,2.099004718E0
5.262587417E0,2.728107267E-1,-2.530530216E-1,-2.245871678E0,2.276488770E0
5.272576417E0,3.220823625E-1,-8.003727257E-2,-2.334478045E0,2.357950542E0
5.282564417E0,3.494891028E-1,4.266888678E-2,-2.341766015E0,2.368086007E0
5.292552417E0,3.598969639E-1,1.323374006E-1,-2.285070827E0,2.317021298E0
5.302540417E0,3.447052764E-1,1.764569816E-1,-2.218476888E0,2.252020980E0
5.312528417E0,3.511536589E-1,1.748381799E-1,-2.145793074E0,2.181353982E0
5.322516417E0,3.189813648E-1,1.581794626E-1,-2.084917712E0,2.115100876E0
5.332504417E0,2.732347960E-1,2.040447298E-1,-2.117406011E0,2.144691055E0
5.342492417E0,2.364226266E-1,2.973961124E-1,-2.145459198E0,2.178838056E0
5.352481417E0,1.095964095E-1,3.950943151E-1,-2.112029496E0,2.151459850E0
5.362469417E0,-1.222819987E-1,5.580836973E-1,-1.592315521E0,1.691708905E0
5.372457417E0,-3.070031242E-2,5.634669363E-1,-1.205301180E0,1.330860035E0
5.382445417E0,2.236327926E-2,6.053572664E-1,-7.879976785E-1,9.939305195E-1
5.392433417E0,-1.184420591E-1,6.882055879E-1,-4.518769187E-1,8.317741293E-1
5.402421417E0,-3.188449419E-1,7.830015251E-1,-1.950514197E-1,8.676396381E-1
5.412409417E0,-5.977035534E-1,8.417508397E-1,-4.323782086E-2,1.033278047E0
5.422398417E0,-7.578375940E-1,8.296848178E-1,6.369255066E-2,1.125500536E0
5.432386417E0,-8.073487464E-1,8.112245733E-1,1.676098520E-1,1.156715336E0
5.442374417E0,-8.457329397E-1,7.944041803E-1,1.715970683E-1,1.172939794E0
5.452362417E0,-3.655669359E-1,1.106720633E0,4.844184279E-1,1.262192916E0
5.462350417E0,5.115612487E-2,1.295891508E0,8.017029673E-1,1.524689935E0
5.472338417E0,4.599983358E-1,1.289882032E0,1.292737520E0,1.883232439E0
5.482326417E0,7.038133413E-1,1.120691093E0,1.892923801E0,2.309645484E0
5.492315417E0,6.825375894E-1,8.578070015E-1,2.576952138E0,2.800423670E0
5.502303417E0,3.978012105E-1,4.458054623E-1,3.285079774E0,3.338972512E0
5.512291417E0,5.769838717E-2,3.435151488E-2,3.668780497E0,3.669394973E0
5.522279417E0,-2.662011803E-1,-2.708813283E-1,3.617477027E0,3.637358905E0
5.532267417E0,-5.309503874E-1,-4.003898460E-1,3.264984064E0,3.332017599E0
5.542255417E0,-7.164742443E-1,-3.166208804E-1,2.754833209E0,2.864033892E0
5.552243417E0,-7.051589318E-1,-1.760774973E-1,2.253939081E0,2.368225873E0
5.562231417E0,-5.179092327E-1,2.570377529E-2,1.775501186E0,1.849674327E0
5.572220417E0,-3.202255061E-1,1.823916131E-1,1.390516999E0,1.438523062E0
5.582208417E0,-1.764471327E-1,2.850649193E-1,1.142766379E0,1.190928459E0
5.592196417E0,-1.352383322E-3,3.115928596E-1,1.099181818E0,1.142494030E0
5.602184417E0,1.958919022E-1,1.365058807E-1,1.193875721E0,1.217516624E0
5.612172417E0,4.001272329E-1,-1.060354552E-1,1.434065307E0,1.492611344E0
5.622160417E0,5.383274905E-1,-3.378763863E-1,1.782061762E0,1.892009794E0
5.632148417E0,5.659102685E-1,-5.674521062E-1,2.073278829E0,2.222777863E0
5.642137417E0,5.434873659E-1,-8.098794213E-1,2.166222661E0,2.375669129E0
5.652125417E0,4.785673385E-1,-1.128169974E0,2.034724628E0,2.375268090E0
5.662113417E0,3.958903404E-1,-1.368437912E0,1.674662443E0,2.198600869E0
5.672101417E0,3.376603683E-1,-1.523096474E0,1.130351570E0,1.926533692E0
5.682089417E0,2.649689893E-1,-1.594587749E0,4.396872282E-1,1.675184620E0
5.692077417E0,2.684302120E-1,-1.652546520E0,-2.968362415E-1,1.700316598E0
5.702065417E0,2.786743146E-1,-1.715503491E0,-9.954212219E-1,2.002866698E0
5.712054417E0,3.366785111E-1,-1.700851830E0,-1.643178695E0,2.388783287E0
5.722042417E0,4.439695097E-1,-1.615205616E0,-2.196018317E0,2.761972946E0
5.732030417E0,6.020492041E-1,-1.469701747E0,-2.607431334E0,3.053061518E0
5.742018417E0,7.849078636E-1,-1.237854092E0,-2.840352246E0,3.196242167E0
5.752006417E0,9.512716008E-1,-9.786464372E-1,-2.875563594E0,3.183006832E0
5.761994417E0,1.094291864E0,-7.459050348E-1,-2.729907698E0,3.034179468E0
5.771982417E0,1.218392439E0,-5.363621682E-1,-2.513631470E0,2.844381774E0
5.781971417E0,1.286925387E0,-3.641163513E-1,-2.240568838E0,2.609388125E0
5.791959417E0,1.253073809E0,-2.870977038E-1,-1.956966600E0,2.341439159E0
5.801947417E0,1.071513232E0,-3.114256293E-1,-1.707194597E0,2.039519532E0
5.811935417E0,1.098035106E0,-2.640260527E-1,-1.720875328E0,2.058349519E0
5.821923417E0,8.002426252E-1,-3.018543220E-1,-1.461602184E0,1.693453641E0
5.831911417E0,4.948994158E-1,-3.235647413E-1,-1.120904809E0,1.267299161E0
5.841899417E0,2.898088019E-1,-3.070907959E-1,-6.496344298E-1,7.748024206E-1
5.851887417E0,1.343959129E-1,-2.872772133E-1,-2.134871060E-1,3.823181962E-1
5.861876417E0,-1.042375825E-3,-2.583408049E-1,9.504356682E-2,2.752713890E-1
5.871864417E0,-1.400680775E-1,-2.176380444E-1,2.081988841E-1,3.321628517E-1
5.881852417E0,-2.461435861E-1,-1.653241754E-1,1.224073666E-1,3.207839013E-1
5.891840417E0,-3.750246245E-1,-7.322424307E-2,-1.007867020E-1,3.951749208E-1
5.901828417E0,-4.903659233E-1,1.690415427E-2,-3.159870422E-1,5.836028616E-1
5.911816417E0,-5.136488052E-1,1.676126294E-1,-3.800280869E-1,6.605682670E-1
5.921804417E0,-4.145781147E-1,3.214177899E-1,-2.850277895E-1,5.970136093E-1
5.931793417E0,-1.684055118E-1,4.920483135E-1,-1.402501452E-1,5.386483662E-1
5.941781417E0,6.894137688E-2,6.187418354E-1,-3.924358785E-2,6.238064054E-1
5.951769375E0,2.556753516E-1,7.686502652E-1,-4.301855028E-2,8.111989345E-1
5.961757375E0,4.125442339E-1,9.313971341E-1,-1.696095997E-1,1.032695881E0
5.971745375E0,4.915885030E-1,1.020216486E0,-4.102073210E-1,1.204479548E0
5.981733375E0,5.446298388E-1,1.073879454E0,-7.991290230E-1,1.445145646E0
5.991721375E0,5.159027606E-1,1.117560786E0,-1.136118679E0,1.675071169E0
6.001710375E0,5.077231637E-1,1.177903613E0,-1.384313688E0,1.887210671E0
6.011698375E0,5.023576125E-1,1.224109919E0,-1.539008210E0,2.029619308E0
6.021686375E0,4.479656430E-1,1.213382910E0,-1.579444045E0,2.041473682E0
6.031674375E0,4.242476553E-1,1.231437357E0,-1.474532132E0,1.967401598E0
6.041662375E0,4.865200634E-1,1.238248340E0,-1.383707916E0,1.919533360E0
6.051650375E0,5.314501416E-1,1.151936128E0,-1.375256351E0,1.871022749E0
6.061638375E0,5.236221085E-1,1.094272203E0,-1.481141825E0,1.914521578E0
6.071626375E0,5.454103690E-1,1.185043209E0,-1.600934317E0,2.065136936E0
6.081615375E0,6.280317454E-1,1.343408175E0,-1.595916821E0,2.178559133E0
6.091603375E0,5.930464654E-1,1.432634785E0,-1.478253300E0,2.142283678E0
6.101591375E0,4.394952933E-1,1.440303116E0,-1.344753181E0,2.018908194E0
6.111579375E0,2.205925328E-1,1.328306717E0,-1.180564535E0,1.790751915E0
6.121567375E0,5.406631608E-2,1.144203624E0,-8.781272453E-1,1.443340763E0
6.131555375E0,5.245792978E-2,1.021503166E0,-4.148231131E-1,1.103765721E0
6.141543375E0,1.945644563E-1,9.470679644E-1,2.084468061E-1,9.890617411E-1
6.151532375E0,4.518689518E-1,8.818693171E-1,1.090365971E0,1.473355691E0
6.161520375E0,7.605958718E-1,7.884559540E-1,2.105742570E0,2.373672396E0
6.171508375E0,9.599820518E-1,7.264415543E-1,3.106758993E0,3.331851484E0
6.181496375E0,1.004276903E0,6.432622804E-1,3.896785070E0,4.075204577E0
6.191484375E0,9.766554603E-1,4.230444445E-1,4.315771401E0,4.445076521E0
6.201472375E0,8.825419662E-1,1.135367019E-1,4.241341023E0,4.333675643E0
6.211460375E0,3.786632737E-1,-3.360301280E-1,3.161924549E0,3.202197523E0
6.221449375E0,2.425912930E-1,-3.122866318E-1,2.674457967E0,2.703534519E0
6.231437375E0,1.373841142E-1,-1.327199547E-1,2.222824878E0,2.231017574E0
6.241425375E0,4.619199866E-2,5.089241087E-2,1.699666892E0,1.701055931E0
6.251413375E0,-3.941308402E-2,1.000756806E-1,1.247072520E0,1.251702202E0
6.261401375E0,-1.149064853E-1,4.393247008E-2,8.297543997E-1,8.388241330E-1
6.271389375E0,-1.690211505E-1,-9.273450136E-2,5.358411813E-1,5.694678293E-1
6.281377375E0,-1.882367823E-1,-2.749679473E-1,3.681155545E-1,4.965375310E-1
6.291366375E0,-2.174721296E-1,-4.812913370E-1,3.464370024E-1,6.316281144E-1
6.301354375E0,-2.071225579E-1,-7.036179712E-1,4.717451727E-1,8.720788447E-1
6.311342375E0,-1.974621537E-1,-9.448872453E-1,7.322713745E-1,1.211620640E0
6.321330375E0,-2.239980243E-1,-1.137553293E0,9.577680767E-1,1.503835862E0
6.331318375E0,-2.660915816E-1,-1.287220964E0,1.138193856E0,1.738743165E0
6.341306375E0,-2.903976896E-1,-1.479109040E0,1.298818039E0,1.989729296E0
6.351294375E0,-2.521867566E-1,-1.680973343E0,1.369210914E0,2.182660777E0
6.361282375E0,-2.760688684E-1,-1.846317984E0,1.318137240E0,2.285298646E0
6.371271375E0,-3.516657654E-1,-1.943188221E0,1.134297856E0,2.277340752E0
6.381259375E0,-4.089796981E-1,-1.904396330E0,7.915919620E-1,2.102524105E0
6.391247375E0,-3.908138609E-1,-1.790209564E0,3.017829859E-1,1.857056469E0
6.401235375E0,-2.576939932E-1,-1.576775668E0,-1.682974845E-1,1.606534078E0
6.411223375E0,2.157344833E-2,-1.326411927E0,-4.662563914E-1,1.406139764E0
6.421211375E0,3.224612621E-1,-1.059908409E0,-6.421920937E-1,1.280545894E0
6.431199375E0,5.833597487E-1,-8.516492987E-1,-6.492379886E-1,1.219477384E0
6.441188375E0,5.609929794E-1,-8.597313201E-1,-6.476738584E-1,1.213809084E0
6.451176375E0,9.407890780E-1,-5.762319928E-1,-2.078316790E-1,1.122640372E0
6.461164375E0,9.059146759E-1,-6.196680343E-1,-1.003446525E-1,1.102151951E0
6.471152375E0,7.636029486E-1,-6.935926276E-1,-1.899111325E-1,1.048916791E0
6.481140375E0,5.223010033E-1,-7.471993160E-1,-4.214515167E-1,1.004353791E0
6.491128375E0,2.674348332E-1,-7.637092218E-1,-7.191806281E-1,1.082586690E0
6.501116375E0,5.377907161E-2,-7.573635310E-1,-1.057620978E0,1.301942334E0
6.511105375E0,-1.596831837E-1,-7.252538386E-1,-1.322630240E0,1.516852861E0
6.521093375E0,-2.342488877E-1,-6.651716512E-1,-1.428045014E0,1.592682777E0
6.531081375E0,-2.115972859E-1,-5.757867274E-1,-1.499006823E0,1.619668244E0
6.541069375E0,-1.922692049E-1,-4.949223661E-1,-1.651080038E0,1.734353161E0
6.551057375E0,-1.880772629E-1,-3.956965783E-1,-1.764202026E0,1.817789214E0
6.561045375E0,-2.060490822E-1,-2.695586881E-1,-1.763568773E0,1.795910055E0
6.571033375E0,-2.133886169E-1,-1.699271035E-1,-1.713263422E0,1.734843358E0
6.581021375E0,-2.112546390E-1,-8.249661148E-2,-1.608023481E0,1.623937723E0
6.591010375E0,-2.142304333E-1,-1.751796573E-2,-1.551763911E0,1.566579967E0
6.600998375E0,-2.359465902E-1,3.569052726E-2,-1.533386112E0,1.551843283E0
6.610986375E0,-1.852971677E-1,9.610220522E-2,-1.553478314E0,1.567439169E0
6.620974375E0,-1.207510332E-1,1.463999543E-1,-1.610121462E0,1.621266443E0
6.630962375E0,-1.066061434E-1,2.037633325E-1,-1.638960514E0,1.655015387E0
6.640950375E0,-1.012984430E-1,3.156881033E-1,-1.606979753E0,1.640824268E0
6.650938375E0,-9.818176746E-2,3.601893613E-1,-1.533688998E0,1.578473306E0
6.660927375E0,-9.807761393E-2,3.625886200E-1,-1.534297693E0,1.579607273E0
6.670915375E0,-1.244004632E-1,3.427553031E-1,-1.431636373E0,1.477341998E0
6.680903375E0,-2.000445399E-1,3.191446848E-1,-1.364762353E0,1.415785092E0
6.690891375E0,-2.896566647E-1,3.308733223E-1,-1.355253026E0,1.424811883E0
6.700879375E0,-3.794895949E-1,3.122392693E-1,-1.300228972E0,1.390000394E0
6.710867375E0,-4.294109660E-1,2.751220214E-1,-1.238634403E0,1.339515244E0
6.720855375E0,-4.801844956E-1,2.537197503E-1,-1.096088056E0,1.223257899E0
6.730844375E0,-4.828244039E-1,2.894615869E-1,-9.014307386E-1,1.062772220E0
6.740832375E0,-4.852136127E-1,3.682903862E-1,-7.080703336E-1,9.340415707E-1
6.750820375E0,-4.897896802E-1,4.632876138E-1,-5.572343892E-1,8.746653694E-1
6.760808375E0,-4.793640582E-1,5.235133503E-1,-3.589289939E-1,7.954157095E-1
6.770796375E0,-4.543226993E-1,5.034462909E-1,-1.205894673E-1,6.887736222E-1
6.780784375E0,-4.590736717E-1,3.881247264E-1,1.180254632E-1,6.126332094E-1
6.790772375E0,-4.261538476E-1,2.188725378E-1,4.543690020E-1,6.602753059E-1
6.800761375E0,-3.006919686E-1,3.414159983E-2,9.604648125E-1,1.007012396E0
6.810749375E0,-1.613412896E-1,-9.698952019E-2,1.509111396E0,1.520807412E0
6.820737375E0,-8.315990500E-2,-1.412435871E-1,1.983584880E0,1.990345270E0
6.830725375E0,-1.224073849E-1,-1.741685276E-1,2.307708322E0,2.317506407E0
6.840713375E0,-2.640479797E-1,-2.218022852E-1,2.444219758E0,2.468426182E0
6.850701375E0,-3.950606936E-1,-2.723079027E-1,2.355824475E0,2.404190821E0
6.860689375E0,-5.347671939E-1,-2.829353634E-1,2.148528986E0,2.232085387E0
6.870677375E0,-6.170432923E-1,-2.701052566E-1,1.883337291E0,2.000164650E0
6.880666375E0,-5.637942342E-1,-1.990254799E-1,1.666718416E0,1.770713235E0
6.890654375E0,-4.385518816E-1,-1.432730095E-1,1.528091458E0,1.596220039E0
6.900642375E0,-3.231613200E-1,-1.523006719E-1,1.466120912E0,1.509019305E0
6.910630375E0,-1.934707163E-1,-1.872626361E-1,1.479060216E0,1.503368662E0
6.920618375E0,-1.751595575E-1,-2.514684261E-1,1.547522340E0,1.577574922E0
6.930606375E0,-1.631189711E-1,-3.855291474E-1,1.805666386E0,1.853556479E0
6.940594375E0,-7.401641289E-2,-5.476915871E-1,2.080736952E0,2.152884291E0
6.950583250E0,1.024174813E-1,-7.230545546E-1,2.268174713E0,2.382837333E0
6.960571250E0,2.962589751E-1,-8.131382208E-1,2.365315091E0,2.518666041E0
6.970559250E0,4.717866880E-1,-8.582372104E-1,2.366124930E0,2.560800846E0
6.980547250E0,5.649799765E-1,-8.643462351E-1,2.228131226E0,2.455782064E0
6.990535250E0,6.208110919E-1,-8.801224615E-1,1.959429447E0,2.235930615E0
7.000523250E0,5.742700693E-1,-8.958096640E-1,1.579919423E0,1.904837644E0
7.010511250E0,5.131552271E-1,-9.422407955E-1,1.087210813E0,1.527472866E0
7.020500250E0,5.215878257E-1,-9.337439141E-1,5.243192428E-1,1.191151638E0
7.030488250E0,5.559514370E-1,-8.384677742E-1,2.669078529E-2,1.006390882E0
7.040476250E0,6.931771830E-1,-7.820893595E-1,-3.504745048E-1,1.102266189E0
7.050464250E0,9.092803332E-1,-7.231836319E-1,-5.580120689E-1,1.288861032E0
7.060452250E0,1.380675989E0,-5.882810578E-1,-5.368843246E-1,1.593921443E0
7.070440250E0,1.519043769E0,-5.310509960E-1,-4.762194622E-1,1.678181786E0
7.080428250E0,1.545532387E0,-4.826654327E-1,-4.758376390E-1,1.687618955E0
7.090417250E0,1.485831876E0,-4.512245156E-1,-5.296700299E-1,1.640685914E0
7.100405250E0,1.426159286E0,-3.962014854E-1,-6.232330817E-1,1.606027833E0
7.110393250E0,1.443715551E0,-4.112615740E-1,-6.188348061E-1,1.623701695E0
7.120381250E0,1.161206743E0,-2.498553255E-1,-8.365283990E-1,1.452793359E0
7.130369250E0,9.567244218E-1,-2.393931949E-1,-9.571769232E-1,1.374342891E0
7.140357250E0,7.216718343E-1,-2.810736099E-1,-1.037372655E0,1.294586666E0
7.150345250E0,4.616077819E-1,-3.789799735E-1,-1.108713949E0,1.259346729E0
7.160333250E0,2.196436759E-1,-4.402929997E-1,-1.232750934E0,1.327319154E0
7.170322250E0,3.997872904E-2,-4.778639916E-1,-1.364146641E0,1.445976608E0
7.180310250E0,-1.147427998E-1,-4.415805566E-1,-1.463367459E0,1.532841680E0
7.190298250E0,-2.300107892E-1,-3.673622869E-1,-1.538014183E0,1.597919785E0
7.200286250E0,-2.029781245E-1,-2.288563661E-1,-1.521311027E0,1.551761127E0
7.210274250E0,-9.710357744E-2,-7.968030006E-2,-1.490206178E0,1.495490725E0
7.220262250E0,1.511808570E-2,4.465430886E-2,-1.436105985E0,1.436879593E0
7.230250250E0,1.350165217E-1,1.669678277E-1,-1.415652425E0,1.431844791E0
7.240239250E0,1.724106718E-1,2.714577176E-1,-1.416571022E0,1.452614262E0
7.250227250E0,1.400069376E-1,3.512751348E-1,-1.460464316E0,1.508625925E0
7.260215250E0,1.366173432E-1,3.351783349E-1,-1.539813956E0,1.581782486E0
7.270203250E0,1.535636340E-1,3.053259601E-1,-1.576392383E0,1.613015399E0
7.280191250E0,1.790572019E-1,3.303707542E-1,-1.489467090E0,1.536137536E0
7.290179250E0,1.657647631E-1,3.898245120E-1,-1.270998157E0,1.339730354E0
7.300167250E0,2.169481095E-1,4.658473787E-1,-1.011815645E0,1.134835302E0
7.310156250E0,2.497179160E-1,5.072801641E-1,-7.926403677E-1,9.736380000E-1
7.320144250E0,2.221360881E-1,4.925032268E-1,-5.588178152E-1,7.772909498E-1
7.330132250E0,2.162499885E-1,5.019366860E-1,-3.829575419E-1,6.673537092E-1
7.340120250E0,2.468232518E-1,4.612017658E-1,-2.680685252E-1,5.877835662E-1
7.350108250E0,2.952676528E-1,4.863656969E-1,-2.219246382E-1,6.107250797E-1
7.360096250E0,3.490078039E-1,5.836632192E-1,-2.593041337E-1,7.278103011E-1
7.370084250E0,4.011029139E-1,7.517980050E-1,-3.847777802E-1,9.349533293E-1
7.380073250E0,4.408945321E-1,9.152012238E-1,-6.028204519E-1,1.181259398E0
7.390061250E0,5.152983778E-1,1.078048226E0,-8.517200500E-1,1.467360705E0
7.400049250E0,5.342030107E-1,1.193950273E0,-1.003701464E0,1.648728825E0
7.410037250E0,5.390253557E-1,1.264767802E0,-9.732041413E-1,1.684432316E0
7.420025250E0,5.186426197E-1,1.291419850E0,-7.951236802E-1,1.602802877E0
7.430013250E0,5.276707207E-1,1.293756543E0,-5.364633250E-1,1.496674741E0
7.440001250E0,5.625374483E-1,1.250249312E0,-2.692256892E-1,1.397159330E0
7.449989250E0,6.051894513E-1,1.249139949E0,-5.856863558E-2,1.389257056E0
7.459978250E0,6.330823510E-1,1.256719110E0,9.203283548E-2,1.410179502E0
7.469966250E0,7.024661428E-1,1.323728640E0,1.935861075E-1,1.511023420E0
7.479954250E0,9.063170374E-1,1.397525618E0,2.647467220E-1,1.686588050E0
7.489942250E0,1.079963336E0,1.397973222E0,3.871429789E-1,1.808460567E0
7.499930250E0,1.078008246E0,1.300185849E0,6.455940038E-1,1.808141764E0
7.509918250E0,1.074845268E0,1.346838444E0,6.351456141E-1,1.836484711E0
7.519906250E0,8.865991299E-1,1.144491746E0,9.540106559E-1,1.733798058E0
7.529895250E0,6.173461781E-1,8.850121956E-1,1.147493852E0,1.575152383E0
7.539883250E0,3.468504006E-1,5.996544769E-1,1.385731637E0,1.549239447E0
7.549871250E0,3.537718959E-2,3.093555687E-1,1.615848809E0,1.645575823E0
7.559859250E0,-3.003613816E-1,1.007599510E-1,1.817391808E0,1.844798773E0
7.569847250E0,-6.509499802E-1,2.897733897E-3,1.983529331E0,2.087614160E0
7.579835250E0,-9.310616501E-1,-1.429424956E-2,2.077691138E0,2.276813692E0
7.589823250E0,-1.128403717E0,-4.848394275E-2,1.944112666E0,2.248381573E0
7.599812250E0,-1.194394515E0,-1.177949367E-1,1.681680856E0,2.066035916E0
7.609800250E0,-1.043347267E0,-1.445032637E-1,1.436256258E0,1.781091450E0
7.619788250E0,-6.825471642E-1,-9.368935168E-2,1.450494813E0,1.605796852E0
7.629776250E0,-2.398146330E-1,-2.179330364E-2,1.669782942E0,1.687056928E0
7.639764250E0,1.719769181E-1,-3.363771603E-2,1.975432107E0,1.983189241E0
7.649752250E0,4.495295539E-1,-1.564565805E-1,2.192498294E0,2.243569533E0
7.659740250E0,5.890014347E-1,-3.709495537E-1,2.308714043E0,2.411366168E0
7.669729250E0,6.894758955E-1,-6.650614312E-1,2.404276258E0,2.588093515E0
7.679717250E0,7.190633914E-1,-8.923619995E-1,2.388377094E0,2.649095552E0
7.689705250E0,6.641428337E-1,-1.067630973E0,2.427482688E0,2.733787446E0
7.699693250E0,5.936246089E-1,-1.264996721E0,2.444637249E0,2.815822821E0
7.709681250E0,4.681251250E-1,-1.421770220E0,2.262479525E0,2.712818699E0
7.719669250E0,3.157996024E-1,-1.577746452E0,1.921107965E0,2.505926788E0
7.729657250E0,1.463271564E-1,-1.714630794E0,1.430506691E0,2.237793509E0
7.739645250E0,-1.631095424E-2,-1.753612719E0,7.929333133E-1,1.924621223E0
7.749634250E0,-7.247397222E-2,-1.694073591E0,1.576912200E-1,1.702939908E0
7.759622250E0,9.282937244E-2,-1.548501749E0,-3.578648007E-1,1.592024552E0
7.769610250E0,3.715296706E-1,-1.322068908E0,-7.664050806E-1,1.572665648E0
7.779598250E0,6.597466777E-1,-1.114475649E0,-1.134636995E0,1.721837031E0
7.789586250E0,8.761944482E-1,-9.999452126E-1,-1.494949440E0,2.000620146E0
7.799574250E0,9.969340427E-1,-9.310265668E-1,-1.802456265E0,2.260428398E0
7.809562250E0,1.037748193E0,-8.616345888E-1,-1.974482519E0,2.391216572E0
7.819551250E0,1.024044950E0,-7.874220201E-1,-2.011706479E0,2.390745585E0
7.829539250E0,9.309737957E-1,-6.869070674E-1,-1.958119671E0,2.274375996E0
7.839527250E0,7.989788957E-1,-5.865926743E-1,-1.867883100E0,2.114579276E0
7.849515250E0,6.257808597E-1,-4.674734893E-1,-1.767703924E0,1.932591604E0
7.859503250E0,4.381871616E-1,-2.771282011E-1,-1.691266782E0,1.768952050E0
7.869491250E0,3.283848935E-1,-9.649966970E-2,-1.646459568E0,1.681659280E0
7.879479250E0,2.407470812E-1,5.948036268E-2,-1.737987204E0,1.755590098E0
7.889468250E0,1.091925131E-1,1.610273489E-1,-1.935174027E0,1.944929646E0
7.899456250E0,-8.099204980E-2,3.003773153E-1,-2.196846868E0,2.218765964E0
7.909444250E0,-2.726263202E-1,6.009873497E-1,-2.323237358E0,2.415148593E0
7.919432250E0,-2.876587807E-1,6.823477010E-1,-2.328978154E0,2.443866854E0
7.929420250E0,-2.573730541E-1,7.437079436E-1,-2.278150647E0,2.410251598E0
7.939408250E0,-1.603934742E-1,8.170896229E-1,-2.039771944E0,2.203186579E0
7.949396000E0,-4.888666973E-2,8.306320667E-1,-1.671100320E0,1.866792922E0
7.959385000E0,5.468864255E-3,8.033495432E-1,-1.336916158E0,1.559726005E0
7.969373000E0,1.136263836E-1,7.549566709E-1,-9.644321483E-1,1.230040609E0
7.979361000E0,1.685304047E-1,6.626862922E-1,-6.927880508E-1,9.734017169E-1
7.989349000E0,1.143023217E-1,5.799015592E-1,-5.263897419E-1,7.914777315E-1
7.999337000E0,3.454714078E-2,5.144678539E-1,-3.141165179E-1,6.037713677E-1
8.009325000E0,9.291591123E-3,4.514657132E-1,-1.168753159E-1,4.664412754E-1
8.019313000E0,-2.777847704E-2,3.588496180E-1,1.847486258E-2,3.603970209E-1
8.029302000E0,-5.864300486E-2,3.003141654E-1,1.607440513E-1,3.456389011E-1
8.039290000E0,-7.022462144E-2,2.808217411E-1,2.434353751E-1,3.782236502E-1
8.049278000E0,-3.459855974E-2,3.168258253E-1,1.142317897E-1,3.385624989E-1
8.059266000E0,-8.863648027E-3,4.101180048E-1,-1.225190485E-1,4.281194452E-1
8.069254000E0,-4.532692138E-2,5.179637580E-1,-3.549306679E-1,6.295369436E-1
8.079242000E0,-5.362759218E-2,6.627571897E-1,-5.002503490E-1,8.320897926E-1
8.089230000E0,1.126075063E-2,7.819651061E-1,-5.134118468E-1,9.355148081E-1
8.099218000E0,9.048456587E-2,8.269703941E-1,-3.873827147E-1,9.176779702E-1
8.109207000E0,8.230920821E-2,8.076605491E-1,-3.833329332E-1,8.977942448E-1
8.119195000E0,1.257842616E-1,7.479101913E-1,-2.296979266E-1,7.924345223E-1
8.129183000E0,1.561585552E-1,5.786808068E-1,1.230838895E-2,5.995068531E-1
8.139171000E0,7.516308842E-2,3.374198650E-1,7.987121165E-2,3.547972176E-1
8.149159000E0,1.332569484E-2,1.351895262E-1,9.605338097E-2,1.663731773E-1
8.159147000E0,3.274815353E-2,4.841640741E-3,2.263860637E-1,2.287936469E-1
8.169135000E0,2.953125302E-2,-4.921601415E-2,5.010800689E-1,5.043565668E-1
8.179124000E0,-1.748703031E-2,-3.556218088E-2,7.359171134E-1,7.369833531E-1
8.189112000E0,-8.869023811E-2,1.555476308E-2,8.858274436E-1,8.903921433E-1
8.199100000E0,-9.002822723E-2,4.033994079E-2,1.059071088E0,1.063655941E0
8.209088000E0,-1.095589142E-2,-7.871068552E-2,9.415946782E-1,9.449422953E-1
8.219076000E0,-6.027602255E-3,-6.226261407E-2,9.382126486E-1,9.402956658E-1
8.229064000E0,1.402960824E-1,-5.818669546E-1,1.332229614E-1,6.131887972E-1
8.239052000E0,8.237451430E-2,-7.196402192E-1,4.924963564E-1,8.759111066E-1
8.249041000E0,1.994702337E-1,-8.166436265E-1,1.524053956E0,1.740527405E0
8.259029000E0,3.917908575E-1,-1.027930425E0,2.705042413E0,2.920170456E0
8.269017000E0,4.914975423E-1,-1.318978508E0,3.600681485E0,3.866029138E0
8.279005000E0,4.263207125E-1,-1.601469921E0,4.085185867E0,4.408537039E0
8.288993000E0,1.990709420E-1,-1.852289891E0,4.102153317E0,4.505360021E0
8.298981000E0,-3.707664628E-2,-1.994941634E0,3.597532759E0,4.113807088E0
8.308969000E0,-1.764221907E-1,-1.955343851E0,2.902892895E0,3.504465940E0
8.318958000E0,-1.779190048E-1,-1.789039683E0,2.397687031E0,2.996868575E0
8.328946000E0,-8.838654835E-2,-1.574736013E0,2.048310633E0,2.585185127E0
8.338934000E0,1.860830335E-1,-1.363644365E0,1.929419782E0,2.369981761E0
8.348922000E0,5.254707423E-1,-1.142710099E0,1.717124923E0,2.128479240E0
8.358910000E0,5.264383834E-1,-1.204634306E0,1.727660437E0,2.170965630E0
8.368898000E0,8.635840505E-1,-1.030124447E0,1.337786808E0,1.896472339E0
8.378886000E0,1.176431869E0,-9.344290616E-1,8.160356623E-1,1.709696995E0
8.388875000E0,1.437410060E0,-7.699753904E-1,2.091432095E-1,1.644004460E0
8.398863000E0,1.598613995E0,-5.482026337E-1,-2.993628234E-1,1.716307354E0
8.408851000E0,1.704052011E0,-3.691624984E-1,-7.954756826E-1,1.916469611E0
8.418839000E0,1.675256521E0,-2.153906670E-1,-1.212833564E0,2.079385198E0
8.428827000E0,1.584708147E0,-6.011829391E-2,-1.595019273E0,2.249222222E0
8.438815000E0,1.418854360E0,6.481302336E-2,-1.848097292E0,2.330839339E0
8.448803000E0,1.189506462E0,1.305541460E-1,-1.880655758E0,2.229088623E0
8.458792000E0,9.064204600E-1,4.722401395E-2,-1.650776567E0,1.883850162E0
8.468780000E0,6.651861231E-1,-2.013781071E-1,-1.287094372E0,1.462750027E0
8.478768000E0,4.540669933E-1,-4.760895078E-1,-9.190910840E-1,1.130294862E0
8.488756000E0,2.189247242E-1,-6.814231101E-1,-5.710642236E-1,9.156308412E-1
8.498744000E0,3.359715097E-2,-7.110411577E-1,-3.623595554E-1,7.987569992E-1
8.508732000E0,-7.468151540E-2,-6.123240776E-1,-2.971104759E-1,6.846844088E-1
8.518720000E0,-1.807527117E-1,-5.153025439E-1,-3.672203457E-1,6.580722125E-1
8.528709000E0,-1.948090526E-1,-4.948090763E-1,-4.898499066E-1,7.230072752E-1
8.538697000E0,-1.238239277E-1,-4.167670199E-1,-6.221782440E-1,7.590341766E-1
8.548685000E0,2.069256529E-2,-2.273306814E-1,-5.554129815E-1,6.004922989E-1
8.558673000E0,2.413906769E-1,-9.064192906E-2,-6.098891509E-1,6.621557177E-1
8.568661000E0,3.272430054E-1,-2.454778075E-2,-8.459827620E-1,9.074014611E-1
8.578649000E0,3.049434791E-1,4.012213200E-3,-1.075229284E0,1.117642445E0
8.588637000E0,3.347746577E-1,-7.209763080E-3,-1.163029904E0,1.210274601E0
8.598625000E0,4.778887691E-1,1.714600973E-1,-1.197962340E0,1.301111067E0
8.608614000E0,6.380736805E-1,3.888847183E-1,-1.340592302E0,1.534782417E0
8.618602000E0,8.412117995E-1,5.872004923E-1,-1.604794648E0,1.904680439E0
8.628590000E0,8.770055301E-1,7.369900775E-1,-1.910171918E0,2.227341426E0
8.638578000E0,7.618816014E-1,8.123779365E-1,-2.134425502E0,2.407528548E0
8.648566000E0,6.202328753E-1,8.930744827E-1,-2.224063902E0,2.475627414E0
8.658554000E0,5.709357311E-1,9.220521140E-1,-2.217459472E0,2.468455838E0
8.668543000E0,6.193546966E-1,9.081386644E-1,-2.163684969E0,2.426901053E0
8.678531000E0,6.691895655E-1,8.700257818E-1,-1.968100283E0,2.253481364E0
8.688519000E0,6.930611157E-1,9.038637650E-1,-1.737570298E0,2.077607748E0
8.698507000E0,6.418100513E-1,9.023189306E-1,-1.551216027E0,1.905877949E0
8.708495000E0,4.729885101E-1,9.645156173E-1,-1.386112876E0,1.753658294E0
8.718483000E0,3.662812098E-1,1.020637924E0,-1.129179788E0,1.565538467E0
8.728471000E0,3.131884917E-1,1.096217572E0,-8.469259179E-1,1.420233610E0
8.738459000E0,3.664458089E-1,1.120763014E0,-5.526209360E-1,1.302222010E0
8.748448000E0,2.221490251E-1,1.030510071E0,7.344102859E-4,1.054182970E0
8.758436000E0,3.833398037E-2,9.621995352E-1,2.799775493E-1,1.002838406E0
8.768424000E0,6.271913543E-2,8.710126457E-1,5.271533883E-1,1.020042849E0
8.778412000E0,4.217194654E-2,8.615006876E-1,5.273445922E-1,1.010966976E0
8.788400000E0,7.101307462E-1,9.427829786E-1,5.840766174E-1,1.316917202E0
8.798388000E0,1.188483126E0,1.037630664E0,6.353590375E-1,1.700838218E0
8.808376000E0,1.544771810E0,1.012831014E0,8.856409174E-1,2.048537635E0
8.818365000E0,1.740806439E0,9.141776687E-1,1.115592613E0,2.260680152E0
8.828353000E0,1.688168342E0,6.783213083E-1,1.118967041E0,2.135911840E0
8.838341000E0,1.477884633E0,4.538662876E-1,9.863083363E-1,1.833832525E0
8.848329000E0,1.211112801E0,3.011908092E-1,7.753092206E-1,1.469222416E0
8.858317000E0,9.135947013E-1,2.192163540E-1,5.852092230E-1,1.106878911E0
8.868305000E0,9.538988279E-1,2.397922674E-1,5.837117511E-1,1.143740667E0
8.878293000E0,2.491033736E-1,3.903061764E-1,4.084285980E-1,6.174182713E-1
8.888282000E0,-2.166956194E-1,5.197087133E-1,3.339268845E-1,6.546459366E-1
8.898270000E0,-3.845311008E-1,4.890785126E-1,3.759063846E-1,7.268889660E-1
8.908258000E0,-3.841799024E-1,3.964434139E-1,4.410665864E-1,7.066125611E-1
8.918246000E0,-2.812874718E-1,3.412348808E-1,6.159106135E-1,7.582280459E-1
8.928234000E0,-4.927667901E-2,3.953553933E-1,1.062262498E0,1.134520028E0
8.938222000E0,1.862518718E-1,4.422648270E-1,1.701222836E0,1.767610555E0
8.948210250E0,2.664876574E-1,3.028996579E-1,2.536126294E0,2.568014885E0
8.958199250E0,2.278487447E-1,6.221583635E-3,3.251272928E0,3.259252891E0
8.968187250E0,1.718913294E-1,-4.013356331E-1,3.696585177E0,3.722278723E0
8.978175250E0,7.401076667E-2,-6.988340718E-1,3.951380523E0,4.013384443E0
8.988163250E0,-6.501080543E-3,-1.014238731E0,3.882496814E0,4.012792541E0
8.998151250E0,-4.337428026E-2,-1.164841664E0,3.630992281E0,3.813507884E0
9.008139250E0,-7.848359428E-2,-1.176542527E0,3.175297716E0,3.387171029E0
9.018127250E0,-6.974058162E-2,-1.154825822E0,2.499824440E0,2.754561428E0
9.028116250E0,-1.739312768E-2,-1.018303569E0,1.671658729E0,1.957469690E0
9.038104250E0,7.305533163E-2,-8.626248148E-1,8.396367788E-1,1.206005213E0
9.048092250E0,2.131709909E-1,-7.722426483E-1,2.133865339E-1,8.290563262E-1
9.058080250E0,3.669428954E-1,-6.779457709E-1,-1.984059674E-1,7.960040733E-1
9.068068250E0,4.740353078E-1,-7.160035434E-1,-2.979285014E-1,9.089180047E-1
9.078056250E0,2.618494266E-1,-5.318489948E-1,-4.884038901E-1,7.680929862E-1
9.088044250E0,3.845806559E-1,-4.568277562E-1,-5.569478756E-1,8.165689290E-1
9.098033250E0,5.403232913E-1,-5.342510310E-1,-4.129063958E-1,8.647919489E-1
9.108021250E0,6.786219283E-1,-6.514223622E-1,-2.405141062E-1,9.709407041E-1
9.118009250E0,6.568347643E-1,-6.682031402E-1,-2.383155531E-1,9.668100366E-1
9.127997250E0,8.770693378E-1,-6.804046713E-1,-1.991006166E-1,1.127759813E0
9.137985250E0,9.270512641E-1,-6.048763329E-1,-1.004487330E-1,1.111480712E0
9.147973250E0,8.987239163E-1,-4.876931611E-1,-4.809919596E-3,1.022532362E0
9.157961250E0,7.094919379E-1,-4.774698892E-1,-1.784219384E-1,8.736078601E-1
9.167950250E0,3.707609079E-1,-5.478165713E-1,-6.500267780E-1,9.274165508E-1
9.177938250E0,1.159819344E-1,-6.178504273E-1,-1.263166396E0,1.410950142E0
9.187926250E0,3.741903730E-2,-6.551768593E-1,-1.711897513E0,1.833371210E0
9.197914250E0,1.899774984E-2,-6.343270040E-1,-1.840608178E0,1.946938655E0
9.207902250E0,2.399828866E-2,-6.550828654E-1,-1.835270255E0,1.948826926E0
9.217890250E0,1.490382911E-1,-5.093722978E-1,-1.811491383E0,1.887637036E0
9.227878250E0,3.144706399E-1,-3.358599740E-1,-1.761416997E0,1.820517384E0
9.237867250E0,4.246293323E-1,-1.852542637E-1,-1.711482360E0,1.773076728E0
9.247855250E0,4.772618014E-1,-9.668648824E-2,-1.766934430E0,1.832807787E0
9.257843250E0,5.525617330E-1,3.934152871E-3,-1.905103551E0,1.983622819E0
9.267831250E0,5.695782269E-1,6.182304963E-2,-2.104557340E0,2.181147185E0
9.277819250E0,5.218164153E-1,1.034059623E-1,-2.268037888E0,2.329588166E0
9.287807250E0,4.365804563E-1,1.176322380E-1,-2.342641343E0,2.385876841E0
9.297795250E0,2.958618030E-1,7.192923099E-2,-2.259027913E0,2.279455008E0
9.307784250E0,1.457025276E-1,3.749527037E-3,-2.177117193E0,2.181990503E0
9.317772250E0,4.661656134E-2,-6.618229508E-2,-2.105259005E0,2.106814819E0
9.327760250E0,-7.573372185E-2,-1.091464663E-1,-2.000464622E0,2.004870881E0
9.337748250E0,-1.214772208E-1,-1.078375670E-1,-1.856660539E0,1.863752669E0
9.347736250E0,-1.744664432E-1,-6.726052165E-2,-1.655445569E0,1.665971954E0
9.357724250E0,-2.415599538E-1,-2.526581883E-2,-1.409996998E0,1.430762421E0
9.367712250E0,-2.467803479E-1,-3.595306724E-2,-1.136476529E0,1.163517109E0
9.377701250E0,-2.621258537E-1,-1.510949761E-2,-9.074878693E-1,9.447076230E-1
9.387689250E0,-2.921563859E-1,1.036348808E-1,-7.947903889E-1,8.531045098E-1
9.397677250E0,-2.882244623E-1,2.579244831E-1,-7.354709709E-1,8.309728808E-1
9.407665250E0,-1.569506336E-1,3.684929922E-1,-6.667521536E-1,7.778039734E-1
9.417653250E0,6.589980148E-2,2.919570324E-1,-4.074351561E-1,5.055542493E-1
9.427641250E0,2.043830643E-1,1.800574046E-1,5.852536619E-2,2.786006540E-1
9.437629250E0,7.016249478E-2,1.016792795E-1,4.568143076E-1,4.732237982E-1
9.447618250E0,-1.418594817E-1,-1.116593072E-1,8.811888474E-1,8.994919112E-1
9.457606250E0,-1.443706598E-1,-3.480654520E-1,1.558018093E0,1.602938808E0
9.467594250E0,-2.421576854E-2,-6.281269088E-1,2.098820052E0,2.190930265E0
9.477582250E0,8.507169784E-2,-6.665629962E-1,2.287945318E0,2.384583234E0
9.487570250E0,2.401471020E-1,-4.162793621E-1,2.032179335E0,2.088231785E0
9.497558250E0,3.095279154E-1,6.865040481E-2,1.519332329E0,1.552060287E0
9.507546250E0,3.235519871E-1,5.945635986E-1,9.752986139E-1,1.187181177E0
9.517535250E0,2.971659696E-1,9.028483960E-1,7.218732709E-1,1.193542567E0
9.527523250E0,1.552680425E-1,8.960156322E-1,7.323994285E-1,1.167630550E0
9.537511250E0,-4.475331409E-2,6.576842916E-1,9.361070663E-1,1.144922673E0
9.547499250E0,-2.979276060E-1,2.887238145E-1,1.267916674E0,1.334067087E0
9.557487250E0,-5.053865798E-1,2.457672447E-2,1.700846275E0,1.774513359E0
9.567475250E0,-5.733551627E-1,-8.479252070E-2,2.266467326E0,2.339401644E0
9.577464250E0,-4.289626307E-1,-2.226268888E-1,2.913005655E0,2.952824684E0
9.587452250E0,-2.829893587E-1,-2.690948577E-1,3.469719642E0,3.491625612E0
9.597440250E0,-1.515667733E-2,-3.695359893E-1,3.837701880E0,3.855482109E0
9.607428250E0,8.916612837E-2,-3.990995117E-1,3.756177660E0,3.778372882E0
9.617416250E0,8.735276062E-2,-4.012485096E-1,3.756748933E0,3.779126012E0
9.627404250E0,1.917328690E-1,-5.128464210E-1,2.557201998E0,2.615158695E0
9.637392250E0,2.655858157E-1,-5.332496953E-1,1.610476972E0,1.717127585E0
9.647381250E0,4.918715083E-1,-5.164012358E-1,6.619995368E-1,9.730627953E-1
9.657369250E0,6.398777658E-1,-3.750398272E-1,-2.007395911E-1,7.683715316E-1
9.667357250E0,6.888357715E-1,-1.294219789E-1,-9.299902940E-1,1.164528538E0
9.677345250E0,7.880962772E-1,-1.689202130E-2,-1.557774848E0,1.745864703E0
9.687333250E0,8.990993806E-1,-2.282051325E-2,-1.920886356E0,2.121015055E0
9.697321250E0,9.386000998E-1,-5.463404417E-2,-1.970118742E0,2.182961952E0
9.707309250E0,9.726084562E-1,-1.190566197E-1,-1.794635029E0,2.044714302E0
9.717298250E0,9.719182654E-1,-1.322882840E-1,-1.790807442E0,2.041841473E0
9.727286250E0,9.487505007E-1,-3.200724918E-1,-9.282489932E-1,1.365364459E0
9.737274250E0,9.332670005E-1,-3.637023684E-1,-5.926252466E-1,1.163817593E0
9.747262250E0,7.879411798E-1,-4.636532110E-1,-4.302182472E-1,1.010402565E0
9.757250250E0,5.767142054E-1,-4.653114814E-1,-3.200830168E-1,8.071971178E-1
9.767238250E0,4.337726599E-1,-5.086823264E-1,-2.274198514E-1,7.061417836E-1
9.777226250E0,4.465899759E-1,-5.067892903E-1,-2.280080813E-1,7.129275394E-1
9.787215250E0,4.220297698E-1,-5.358180848E-1,-1.177933288E-1,6.921599634E-1
9.797203250E0,4.231464418E-1,-4.147567472E-1,-1.613679492E-1,6.140974561E-1
9.807191250E0,3.380599158E-1,-2.860837966E-1,-3.106333315E-1,5.409450176E-1
9.817179250E0,2.243609536E-1,-1.822740841E-1,-5.967451948E-1,6.630735304E-1
9.827167250E0,1.890650769E-1,-1.596219707E-1,-1.021801520E0,1.051333973E0
9.837155250E0,1.140639198E-1,-1.541720733E-1,-1.368556026E0,1.381928074E0
9.847143250E0,5.075165743E-2,-8.404115349E-2,-1.508382248E0,1.511573899E0
9.857132250E0,7.057894444E-2,-1.609095275E-2,-1.581663063E0,1.583318778E0
9.867120250E0,9.625017632E-2,-2.060120255E-2,-1.579694306E0,1.582757911E0
9.877108250E0,1.648647487E-1,1.709948051E-1,-1.649877266E0,1.666887699E0
9.887096250E0,2.409456855E-1,2.632922271E-1,-1.697266610E0,1.734385068E0
9.897084250E0,3.153700878E-1,3.697223693E-1,-1.689076999E0,1.757593250E0
9.907072250E0,3.776658849E-1,4.637719095E-1,-1.550780409E0,1.662117860E0
9.917060250E0,3.744236769E-1,5.573922640E-1,-1.392715552E0,1.546135775E0
9.927049250E0,3.942181098E-1,6.935253847E-1,-1.278786648E0,1.507209563E0
9.937037250E0,4.291836555E-1,8.004078090E-1,-1.290356534E0,1.577932589E0
9.947025125E0,4.311866923E-1,9.020131212E-1,-1.419188821E0,1.735985756E0
9.957013125E0,5.764695360E-1,1.033156520E0,-1.633734857E0,2.017131405E0
9.967001125E0,8.865263321E-1,1.079517924E0,-1.741645807E0,2.232625809E0
9.976989125E0,1.260631628E0,1.065617046E0,-1.589355660E0,2.291458750E0
9.986977125E0,1.595476525E0,1.086997682E0,-1.299156593E0,2.326997455E0
9.996966125E0,1.713377004E0,1.143294090E0,-8.676636529E-1,2.235088891E0
1.000695412E1,1.593091739E0,1.124960730E0,-4.451923817E-1,2.000418503E0
1.001694212E1,1.313734871E0,9.479149336E-1,-1.609814483E-1,1.627991726E0
1.002693012E1,9.959092451E-1,6.452130577E-1,2.537867010E-2,1.186920044E0
1.003691812E1,6.945742290E-1,4.055517679E-1,8.901684165E-2,8.092154189E-1
1.004690612E1,6.966369074E-1,3.965181121E-1,9.188607037E-2,8.068287575E-1
1.005689412E1,3.360215034E-1,2.681939480E-1,-6.106832027E-3,4.299717873E-1
1.006688313E1,6.597654618E-2,2.647730345E-1,-2.568734461E-1,3.747554292E-1
1.007687112E1,-2.088625431E-2,3.402889475E-1,-3.840176421E-1,5.135195740E-1
1.008685913E1,-7.066228554E-2,4.065677217E-1,-2.502234077E-1,4.825994454E-1
1.009684712E1,-9.388852246E-2,3.355448091E-1,1.785505772E-1,3.915171544E-1
1.010683512E1,-1.310241160E-1,1.955759150E-1,7.887794513E-1,8.231587211E-1
1.011682312E1,-1.396684751E-1,5.209810674E-2,1.391421563E0,1.399383958E0
1.012681112E1,-1.753324158E-1,-2.062517613E-2,1.745036023E0,1.753943435E0
1.013680012E1,-1.425404265E-1,-7.676692486E-2,1.803153838E0,1.810407329E0
1.014678812E1,-4.051011303E-2,-8.923611224E-2,1.733724584E0,1.736492179E0
1.015677612E1,8.783535691E-2,-1.038886499E-1,1.702571788E0,1.707998418E0
1.016676412E1,1.543464117E-1,-1.194100839E-1,1.755361621E0,1.766175530E0
1.017675213E1,1.175835416E-1,-1.591272962E-1,1.915570652E0,1.925761747E0
1.018674012E1,3.388344526E-2,-2.231768194E-1,1.845066680E0,1.858824100E0
1.019672812E1,-4.388580199E-2,-2.785540447E-1,1.472700199E0,1.499454633E0
1.020671712E1,-1.515827800E-1,-2.751372242E-1,8.990479982E-1,9.523471711E-1
1.021670512E1,-2.514539177E-1,-2.632007182E-1,3.698206025E-1,5.189132575E-1
1.022669312E1,-2.744027774E-1,-2.723881558E-1,3.270289242E-1,5.063991597E-1
1.023668112E1,-1.755651350E-1,-2.771890122E-1,6.040588921E-1,6.874183663E-1
1.024666912E1,3.340064798E-2,-3.211577350E-1,9.905750495E-1,1.041871788E0
1.025665712E1,1.552117448E-1,-4.034201655E-1,1.515024101E0,1.575479781E0
1.026664512E1,1.918317418E-1,-5.610687009E-1,2.050225012E0,2.134249307E0
1.027663412E1,1.223948682E-1,-7.641775838E-1,2.425033289E0,2.545532231E0
1.028662212E1,-1.272943964E-1,-1.012020590E0,2.376749321E0,2.586373305E0
1.029661012E1,-4.596050009E-1,-1.201349632E0,1.982416606E0,2.363144789E0
1.030659813E1,-7.274002053E-1,-1.272369913E0,1.347753972E0,1.991099451E0
1.031658612E1,-8.421388755E-1,-1.239860856E0,5.511708266E-1,1.596947748E0
1.032657412E1,-8.817115885E-1,-1.147021397E0,-1.276377010E-1,1.452365241E0
1.033656312E1,-8.736526635E-1,-1.048515694E0,-4.912076300E-1,1.450496147E0
1.034655112E1,-7.967044750E-1,-9.075896108E-1,-5.460890114E-1,1.325394330E0
1.035653912E1,-6.219148269E-1,-7.453437021E-1,-4.352655637E-1,1.063847450E0
1.036652712E1,-4.243106590E-1,-5.954017970E-1,-1.234738988E-1,7.414773354E-1
1.037651512E1,-1.694664891E-1,-4.896370679E-1,2.477406800E-1,5.743159355E-1
1.038650312E1,-4.018170051E-3,-3.976495484E-1,4.334254450E-1,5.882167333E-1
1.039649112E1,-5.528308511E-2,-3.790486783E-1,3.493857533E-1,5.184636194E-1
1.040647912E1,-1.279127029E-1,-4.284775311E-1,2.075393182E-1,4.929779131E-1
1.041646813E1,-1.736634743E-1,-5.258272398E-1,5.589704275E-2,5.565768301E-1
1.042645612E1,-2.697751082E-1,-5.397705102E-1,-8.104825616E-3,6.034869517E-1
1.043644412E1,-3.213538360E-1,-5.521309394E-1,-1.214852607E-1,6.502888056E-1
1.044643212E1,-3.313082090E-1,-5.780832213E-1,-3.023595214E-1,7.316875155E-1
1.045642012E1,-4.167643521E-1,-6.241432008E-1,-7.076388091E-1,1.031503730E0
1.046640812E1,-3.249994288E-1,-6.039045256E-1,-8.922827697E-1,1.125386087E0
1.047639712E1,-1.564629028E-1,-4.938479403E-1,-9.992365301E-1,1.125539902E0
1.048638512E1,-1.124000763E-1,-3.848903391E-1,-1.216075260E0,1.280473892E0
1.049637312E1,-1.198259671E-1,-3.021449286E-1,-1.518224282E0,1.552628349E0
1.050636112E1,-1.179354892E-1,-2.028062895E-1,-1.690338829E0,1.706541686E0
1.051634912E1,-7.173386090E-2,-1.022946990E-1,-1.720580628E0,1.725110909E0
1.052633713E1,-8.200687062E-2,-4.167193651E-2,-1.778000870E0,1.780378828E0
1.053632512E1,-2.730002861E-2,-6.895329058E-3,-1.792375665E0,1.792596821E0
1.054631413E1,3.857722454E-2,6.078619212E-2,-1.677394263E0,1.678938556E0
1.055630212E1,5.094580326E-2,9.080141187E-2,-1.425514923E0,1.429312131E0
1.056629012E1,1.001701131E-2,4.439761609E-2,-1.336830204E0,1.337604755E0
1.057627812E1,-2.439714186E-3,-2.740677685E-2,-1.419021590E0,1.419288328E0
1.058626612E1,-6.101558570E-2,-5.419725716E-2,-1.475340217E0,1.477595683E0
1.059625412E1,-2.460954197E-2,-5.427882582E-2,-1.440662720E0,1.441894897E0
1.060624212E1,1.284945009E-1,3.219769299E-3,-1.303099371E0,1.309423222E0
1.061623112E1,1.154617150E-1,-1.041798413E-2,-1.299474682E0,1.304635731E0
1.062621912E1,4.174958023E-1,2.406591171E-1,-9.532949567E-1,1.068171723E0
1.063620712E1,3.724662483E-1,3.131683919E-1,-8.838855833E-1,1.008989233E0
1.064619512E1,2.031973951E-1,2.746419650E-1,-9.925671959E-1,1.049717595E0
1.065618313E1,-6.655344710E-2,1.680562869E-1,-1.008855200E0,1.024920041E0
1.066617112E1,-2.641653626E-1,1.239782211E-1,-8.061971372E-1,8.573842559E-1
1.067615912E1,-3.629828320E-1,1.728115350E-1,-5.632459116E-1,6.920016762E-1
1.068614812E1,-4.596834267E-1,2.957700017E-1,-4.605530173E-1,7.147711720E-1
1.069613612E1,-5.346677182E-1,4.941821086E-1,-5.201630419E-1,8.947933368E-1
1.070612412E1,-5.498078771E-1,6.477329153E-1,-4.986131287E-1,9.851201365E-1
1.071611212E1,-5.649061919E-1,6.510491636E-1,-5.003012198E-1,9.966370100E-1
1.072610012E1,-3.134478522E-1,5.848753470E-1,2.034164464E-1,6.940511352E-1
1.073608812E1,-1.371590512E-1,5.060165808E-1,8.904502523E-1,1.033328136E0
1.074607613E1,-8.702984814E-2,4.118948275E-1,1.434986828E0,1.495466061E0
1.075606512E1,-1.606795310E-1,3.290178546E-1,1.784119982E0,1.821305787E0
1.076605313E1,-4.069828740E-1,2.835475668E-1,1.906005192E0,1.969489800E0
1.077604112E1,-5.928417033E-1,2.455108443E-1,1.783782012E0,1.895683288E0
1.078602912E1,-6.815176888E-1,2.501868626E-1,1.500941666E0,1.667298927E0
1.079601712E1,-6.387781238E-1,3.154464671E-1,1.228201801E0,1.419867468E0
1.080600512E1,-5.281464648E-1,3.263418764E-1,1.140288913E0,1.298343758E0
1.081599312E1,-3.905022043E-1,3.427070636E-1,1.275411635E0,1.377176438E0
1.082598212E1,-2.935486262E-1,3.633848646E-1,1.343124146E0,1.422041430E0
1.083597012E1,-2.774724011E-1,3.637862760E-1,1.232870218E0,1.315028654E0
1.084595812E1,-1.849537168E-1,3.166162026E-1,1.153253360E0,1.210143384E0
1.085594612E1,4.122342766E-2,2.093756363E-1,1.224529164E0,1.242983991E0
1.086593412E1,3.518580291E-1,1.046069804E-1,1.585668991E0,1.627603404E0
1.087592213E1,5.956345162E-1,3.302536637E-2,2.082181799E0,2.165952954E0
1.088591112E1,6.791996332E-1,-6.930529296E-2,2.518833738E0,2.609720055E0
1.089589913E1,6.585495333E-1,-5.068980485E-2,2.513274790E0,2.598616385E0
1.090588712E1,7.037688294E-1,-2.217959994E-1,2.887244577E0,2.980044509E0
1.091587512E1,5.647907825E-1,-4.652553481E-1,3.055229820E0,3.141636583E0
1.092586312E1,3.189253046E-1,-7.157211229E-1,2.744263197E0,2.853935979E0
1.093585112E1,1.499705656E-1,-9.023502132E-1,2.103117755E0,2.293432225E0
1.094583912E1,5.238874077E-2,-1.019505903E0,1.370213127E0,1.708689814E0
1.095582875E1,9.707552908E-2,-1.034425074E0,7.188409048E-1,1.263404582E0
1.096581675E1,2.096891932E-1,-9.475980145E-1,2.398802680E-1,9.997270116E-1
1.097580475E1,3.846154834E-1,-8.350335583E-1,-1.626519978E-1,9.336304333E-1
1.098579275E1,6.395927871E-1,-7.628645915E-1,-5.681295061E-1,1.146216582E0
1.099578075E1,7.664152401E-1,-6.647138143E-1,-9.297137207E-1,1.376082984E0
1.100576875E1,9.058321571E-1,-5.893741947E-1,-1.170787990E0,1.593310502E0
1.101575675E1,1.078450076E0,-5.429277143E-1,-1.199131783E0,1.701688016E0
1.102574575E1,1.213895418E0,-5.423733982E-1,-9.667675263E-1,1.643882733E0
1.103573375E1,1.257450450E0,-5.789357454E-1,-7.346927065E-1,1.567201839E0
1.104572175E1,1.200881270E0,-6.123704168E-1,-6.550752640E-1,1.498745126E0
1.105570975E1,1.155245506E0,-5.869122246E-1,-6.502980888E-1,1.449808864E0
1.106569775E1,1.125935022E0,-4.945674402E-1,-7.121996373E-1,1.421110464E0
1.107568575E1,1.079394548E0,-4.331903869E-1,-7.493294567E-1,1.383561034E0
1.108567375E1,1.070213177E0,-3.914561775E-1,-6.521218354E-1,1.312957376E0
1.109566275E1,1.011782608E0,-4.025056610E-1,-4.268052274E-1,1.169562976E0
1.110565075E1,8.058659656E-1,-4.645592371E-1,-2.276695275E-1,9.576370152E-1
1.111563875E1,5.282933760E-1,-6.219455248E-1,-1.245082712E-1,8.254770964E-1
1.112562675E1,1.800389676E-1,-8.265626970E-1,-1.580052155E-1,8.605728151E-1
1.113561475E1,-1.855117970E-1,-1.006687929E0,-3.874704230E-1,1.094517493E0
1.114560275E1,-4.378631162E-1,-1.086047217E0,-6.420733953E-1,1.335470296E0
1.115559075E1,-5.330682123E-1,-9.953960788E-1,-7.814821261E-1,1.373204058E0
1.116557975E1,-5.390874458E-1,-8.335708773E-1,-9.168820059E-1,1.351343145E0
1.117556775E1,-3.738972813E-1,-6.072678441E-1,-1.088442822E0,1.301261383E0
1.118555575E1,-1.753730905E-1,-3.963140443E-1,-1.226880330E0,1.301174810E0
1.119554375E1,-4.430267192E-2,-2.234586552E-1,-1.297494230E0,1.317341176E0
1.120553175E1,3.925060451E-2,-1.071876490E-1,-1.331650155E0,1.336533553E0
1.121551975E1,1.803655164E-1,-6.202053934E-2,-1.350975788E0,1.364373060E0
1.122550775E1,2.830013638E-1,-5.263078809E-2,-1.327481675E0,1.358332570E0
1.123549675E1,3.428927492E-1,-1.415318549E-2,-1.249659328E0,1.295925996E0
1.124548475E1,4.224621714E-1,2.292020828E-2,-1.270818647E0,1.339395258E0
1.125547275E1,4.994109447E-1,7.801764429E-2,-1.395331011E0,1.484064243E0
1.126546075E1,5.873022339E-1,1.945541140E-1,-1.558298174E0,1.676624113E0
1.127544875E1,6.766979020E-1,3.159393874E-1,-1.668230506E0,1.827766607E0
1.128543675E1,7.510125777E-1,3.809911233E-1,-1.696968402E0,1.894432866E0
1.129542575E1,6.547140522E-1,2.672344199E-1,-1.466481101E0,1.628076025E0
1.130541375E1,5.562710970E-1,1.132009256E-1,-1.331130338E0,1.447121266E0
1.131540175E1,4.410004032E-1,-4.958438873E-4,-1.190608297E0,1.269657323E0
1.132538975E1,2.808801401E-1,-1.960308284E-2,-1.112580128E0,1.147655207E0
1.133537775E1,1.272675357E-1,8.313571215E-3,-1.083355159E0,1.090836625E0
1.134536575E1,7.912974816E-2,8.958051324E-2,-1.008912503E0,1.015967826E0
1.135535375E1,7.602560755E-2,2.303630474E-1,-8.920623296E-1,9.244578014E-1
1.136534275E1,7.176441260E-2,3.620359120E-1,-8.383872288E-1,9.160312647E-1
1.137533075E1,4.028786402E-2,4.502160171E-1,-7.677680665E-1,8.909463384E-1
1.138531875E1,-2.773071259E-2,5.210971346E-1,-6.377815390E-1,8.240609854E-1
1.139530675E1,-7.604037177E-2,5.709268141E-1,-5.460866725E-1,7.936940337E-1
1.140529475E1,-8.481145106E-2,6.157922074E-1,-3.740288436E-1,7.254588898E-1
1.141528275E1,-4.512109939E-2,6.549939877E-1,-1.068479258E-1,6.651838218E-1
1.142527075E1,4.774079818E-2,7.021742937E-1,3.025413698E-1,7.660673619E-1
1.143525975E1,2.163337133E-1,7.684124297E-1,8.590325779E-1,1.172687046E0
1.144524775E1,1.876847320E-1,7.955294770E-1,8.493916887E-1,1.178795550E0
1.145523575E1,3.530817417E-1,9.301987472E-1,1.696614060E0,1.966833927E0
1.146522375E1,2.960611565E-1,9.733409661E-1,1.928774834E0,2.180646052E0
1.147521175E1,1.575383519E-1,9.488098499E-1,2.002410575E0,2.221419946E0
1.148519975E1,-5.596552826E-3,9.216366693E-1,1.948478782E0,2.155461675E0
1.149518775E1,-1.548090544E-1,8.780234572E-1,1.754209135E0,1.967775577E0
1.150517675E1,-3.103547117E-1,8.154597116E-1,1.465323937E0,1.705423358E0
1.151516475E1,-8.433238138E-2,5.826747474E-1,1.391348473E0,1.510785354E0
1.152515275E1,-8.199459147E-2,4.011678180E-1,1.551227136E0,1.604357927E0
1.153514075E1,-3.174089389E-1,5.470728055E-1,1.324624141E0,1.467878130E0
1.154512875E1,-1.314603914E-2,5.744389442E-1,1.043989949E0,1.191666032E0
1.155511675E1,6.224419534E-2,5.592630807E-1,5.726827329E-1,8.028792225E-1
1.156510475E1,9.626413655E-2,5.800554872E-1,7.667336941E-2,5.929670798E-1
1.157509375E1,1.300172620E-1,6.733323178E-1,-3.182826591E-1,7.560322411E-1
1.158508175E1,1.905811503E-1,7.478778854E-1,-3.423614931E-1,8.443067560E-1
1.159506975E1,3.045865797E-1,6.715471628E-1,-4.996328831E-2,7.390838292E-1
1.160505775E1,4.656108953E-1,4.974837390E-1,4.082718927E-1,7.943358954E-1
1.161504575E1,4.949865759E-1,2.387757289E-1,9.710161132E-1,1.115749905E0
1.162503375E1,3.753581350E-1,-1.102884275E-1,1.417550431E0,1.470546324E0
1.163502175E1,2.789542135E-1,-5.487717140E-1,1.728945655E0,1.835270804E0
1.164501075E1,2.156468482E-1,-9.050712150E-1,1.994192898E0,2.200559652E0
1.165499875E1,2.067508577E-1,-1.165649749E0,2.099848577E0,2.410570327E0
1.166498675E1,2.827181027E-1,-1.280031520E0,2.054520961E0,2.437102090E0
1.167497475E1,3.682553395E-1,-1.246525220E0,1.862729364E0,2.271386758E0
1.168496275E1,3.307203811E-1,-1.091035185E0,1.592758155E0,1.958727210E0
1.169495075E1,2.294263600E-1,-9.173734644E-1,1.290240759E0,1.599666135E0
1.170493975E1,9.289994102E-2,-8.428483620E-1,9.842571330E-1,1.299148130E0
1.171492775E1,1.107279919E-1,-8.489221573E-1,9.870398229E-1,1.306589886E0
1.172491575E1,-6.280647822E-2,-8.853292608E-1,4.760440457E-1,1.007159614E0
1.173490375E1,-5.513938978E-2,-8.941430613E-1,4.789237994E-1,1.015824873E0
1.174489175E1,-1.660893566E-1,-8.283507755E-1,3.585319680E-1,9.177667753E-1
1.175487975E1,-4.658454783E-2,-7.433220273E-1,4.816936255E-1,8.869760455E-1
1.176486775E1,-6.243919998E-2,-7.581333169E-1,4.846412069E-1,9.019655644E-1
1.177485675E1,1.006752395E-1,-6.839230871E-1,5.529881412E-1,8.852582545E-1
1.178484475E1,2.529630110E-1,-5.661323896E-1,5.737837636E-1,8.448218599E-1
1.179483275E1,3.769726975E-1,-4.347241116E-1,4.834279096E-1,7.515291156E-1
1.180482075E1,4.621854502E-1,-3.458049184E-1,3.458762544E-1,6.729240785E-1
1.181480875E1,5.716712012E-1,-2.939553183E-1,1.888434309E-1,6.699847258E-1
1.182479675E1,6.032557771E-1,-2.465323529E-1,-5.254424930E-2,6.538016761E-1
1.183478475E1,5.526780560E-1,-1.319535309E-1,-3.621391153E-1,6.738022757E-1
1.184477375E1,5.391099210E-1,-1.233607551E-1,-7.707975090E-1,9.486760156E-1
1.185476175E1,4.437136574E-1,-1.014205402E-1,-1.231371576E0,1.312800021E0
1.186474975E1,3.903107080E-1,-8.316143990E-2,-1.517205697E0,1.568812098E0
1.187473775E1,2.798706184E-1,-1.046204290E-1,-1.739523852E0,1.764997516E0
1.188472575E1,1.576377180E-1,-1.236376208E-1,-1.934916750E0,1.945260584E0
1.189471375E1,7.758465797E-2,-1.822316918E-1,-2.095406447E0,2.104746053E0
1.190470175E1,-6.983402744E-3,-2.059506297E-1,-2.244249660E0,2.253690522E0
1.191469075E1,2.749989375E-2,-2.126059306E-1,-2.278493879E0,2.288556725E0
1.192467875E1,1.366172701E-2,-1.372975937E-1,-2.271680118E0,2.275866392E0
1.193466675E1,1.228836223E-2,-5.275357962E-2,-2.192031101E0,2.192700228E0
1.194465475E1,-2.567095779E-2,3.756836057E-4,-2.081424585E0,2.081582917E0
1.195464300E1,4.987382591E-3,3.989321351E-2,-1.962370012E0,1.962781803E0
1.196463100E1,4.203577951E-2,1.488016981E-1,-1.836087111E0,1.842586451E0
1.197462000E1,9.070120521E-2,2.688017660E-1,-1.763443642E0,1.786117179E0
1.198460800E1,1.103065538E-1,3.595072836E-1,-1.756488964E0,1.796292433E0
1.199459600E1,1.604766874E-1,4.538591248E-1,-1.732776166E0,1.798403212E0
1.200458400E1,1.925350705E-1,5.382686529E-1,-1.663879593E0,1.759345957E0
1.201457200E1,1.811000363E-1,6.242227229E-1,-1.607092604E0,1.733550654E0
1.202456000E1,1.497997447E-1,6.647746253E-1,-1.476072289E0,1.625778173E0
1.203454800E1,6.903778285E-2,6.742208022E-1,-1.308626159E0,1.473717181E0
1.204453700E1,-6.014767617E-2,6.368588483E-1,-1.151683382E0,1.317414722E0
1.205452500E1,-2.072609907E-1,5.886643428E-1,-1.008314917E0,1.185825366E0
1.206451300E1,-3.852673383E-1,6.130902091E-1,-9.174830997E-1,1.168796717E0
1.207450100E1,-5.629992322E-1,6.037370029E-1,-7.894167978E-1,1.142210744E0
1.208448900E1,-6.688237491E-1,6.230687749E-1,-6.367623693E-1,1.114004587E0
1.209447700E1,-6.034986558E-1,6.704598731E-1,-4.834700096E-1,1.023459974E0
1.210446500E1,-3.374130310E-1,6.683420116E-1,-2.317263258E-1,7.837255183E-1
1.211445400E1,-7.075503699E-2,6.382458079E-1,2.360333848E-1,6.841606137E-1
1.212444200E1,1.371401574E-1,6.492558226E-1,9.216129881E-1,1.135654457E0
1.213443000E1,4.693148506E-1,5.094462651E-1,2.109615766E0,2.220421268E0
1.214441800E1,3.498723147E-1,3.847418198E-1,2.297863365E0,2.355973886E0
1.215440600E1,3.294767149E-2,2.508484751E-1,2.188215793E0,2.202793423E0
1.216439400E1,-2.541871987E-1,1.812511137E-1,1.865744773E0,1.891683551E0
1.217438200E1,-3.439595737E-1,1.743464291E-1,1.581345559E0,1.627685057E0
1.218437100E1,-3.258724546E-1,1.763654727E-1,1.419837277E0,1.467390722E0
1.219435900E1,-2.832032755E-1,1.925572899E-1,1.408919941E0,1.449944069E0
1.220434700E1,-2.133450186E-1,1.910700506E-1,1.496366805E0,1.523527970E0
1.221433500E1,-8.396559650E-2,1.496048132E-1,1.639423029E0,1.648374863E0
1.222432300E1,1.696886833E-1,1.033451512E-1,1.784551506E0,1.795577497E0
1.223431100E1,4.032307157E-1,3.211466253E-2,2.114319851E0,2.152666903E0
1.224430000E1,6.271753476E-1,-4.272794366E-2,2.610853125E0,2.685466185E0
1.225428800E1,7.589135548E-1,-9.115663022E-2,3.034424842E0,3.129216106E0
1.226427600E1,7.817365531E-1,-2.362582102E-1,3.265669942E0,3.366233823E0
1.227426400E1,7.276718085E-1,-4.079108271E-1,3.248721203E0,3.354114929E0
1.228425200E1,6.522802949E-1,-5.662183437E-1,2.810425612E0,2.940164097E0
1.229424000E1,5.416140642E-1,-7.286630577E-1,2.088335409E0,2.277156215E0
1.230422800E1,4.679258446E-1,-7.492951043E-1,1.496367390E0,1.737674628E0
1.231421700E1,4.304445344E-1,-6.877123752E-1,1.047091312E0,1.324624862E0
1.232420500E1,4.928736480E-1,-6.339674002E-1,5.222154146E-1,9.578872776E-1
1.233419300E1,6.460578342E-1,-6.235207647E-1,1.648914814E-3,8.978705854E-1
1.234418100E1,7.572430784E-1,-5.600281888E-1,-5.224744463E-1,1.077046052E0
1.235416900E1,8.225317727E-1,-4.589447406E-1,-9.703583014E-1,1.352325414E0
1.236415700E1,8.670299609E-1,-3.680369094E-1,-1.244368767E0,1.560655551E0
1.237414500E1,9.527755047E-1,-3.082362655E-1,-1.324335873E0,1.660318121E0
1.238413400E1,1.016171894E0,-2.383576530E-1,-1.311540411E0,1.676173600E0
1.239412200E1,9.655388801E-1,-8.709515423E-2,-1.279768980E0,1.605509121E0
1.240411000E1,1.033641986E0,1.242398840E-1,-1.173218678E0,1.568532234E0
1.241409800E1,1.205295187E0,3.675410655E-1,-1.049381667E0,1.639824626E0
1.242408600E1,1.299771720E0,5.516938600E-1,-9.190864062E-1,1.684782616E0
1.243407400E1,1.291672157E0,6.150288534E-1,-7.673043823E-1,1.623401819E0
1.244406200E1,1.177652402E0,5.268344226E-1,-5.177563280E-1,1.390140750E0
1.245405100E1,9.187311879E-1,2.855826902E-1,-2.912673533E-1,1.005216961E0
1.246403900E1,5.572361799E-1,3.971575052E-2,-1.418756711E-1,5.763837325E-1
1.247402700E1,1.922939094E-1,-1.608908165E-1,-7.229438961E-2,2.609392289E-1
1.248401500E1,-2.045096565E-2,-3.524727908E-1,-5.886801302E-2,3.579395943E-1
1.249400300E1,4.444468617E-3,-4.723336950E-1,-1.217150563E-1,4.877842019E-1
1.250399100E1,1.259751914E-1,-5.314765272E-1,-3.693867391E-1,6.593812333E-1
1.251398000E1,2.509923531E-1,-4.840526846E-1,-7.886151445E-1,9.587585770E-1
1.252396800E1,2.758831827E-1,-3.527905869E-1,-1.156489209E0,1.240177414E0
1.253395600E1,2.511877963E-1,-2.804543898E-1,-1.393686190E0,1.443645098E0
1.254394400E1,2.162544835E-1,-3.132055217E-1,-1.452540169E0,1.501578051E0
1.255393200E1,1.997018931E-1,-4.358081853E-1,-1.358112899E0,1.440236184E0
1.256392000E1,1.647493575E-1,-5.336350268E-1,-1.212029572E0,1.334512786E0
1.257390800E1,1.793743768E-1,-5.029652113E-1,-1.173938470E0,1.289682403E0
1.258389700E1,3.223356566E-1,-4.336496857E-1,-1.234417391E0,1.347493458E0
1.259388500E1,4.453601237E-1,-3.509878904E-1,-1.398520083E0,1.509104556E0
1.260387300E1,4.586938585E-1,-3.711356413E-1,-1.390935075E0,1.510907708E0
1.261386100E1,5.040445707E-1,-2.736347821E-1,-1.685876818E0,1.780763199E0
1.262384900E1,5.061268373E-1,-2.206017056E-1,-2.008245512E0,2.082757673E0
1.263383700E1,4.625644594E-1,-1.708454087E-1,-2.244021619E0,2.297561111E0
1.264382600E1,4.403806349E-1,-9.674452186E-2,-2.331665534E0,2.374859737E0
1.265381400E1,4.237705225E-1,-3.194597036E-2,-2.341528033E0,2.379780563E0
1.266380200E1,4.252283795E-1,4.552262038E-2,-2.256631724E0,2.296797384E0
1.267379000E1,3.801990449E-1,1.581677681E-1,-2.102181031E0,2.142132919E0
1.268377800E1,2.769006713E-1,2.681305057E-1,-1.899855675E0,1.938561203E0
1.269376600E1,1.398920032E-1,3.269754222E-1,-1.748972368E0,1.784765263E0
1.270375400E1,1.496046670E-2,3.591330618E-1,-1.558776476E0,1.599682617E0
1.271374300E1,-2.866378203E-3,4.102020586E-1,-1.353257371E0,1.414064870E0
1.272373100E1,-6.858118840E-2,4.359514421E-1,-1.115082151E0,1.199235274E0
1.273371900E1,-1.681784937E-1,4.744623739E-1,-7.133486152E-1,8.730777724E-1
1.274370700E1,-2.887920076E-1,5.132528025E-1,-2.593421406E-1,6.434963938E-1
1.275369500E1,-4.598794911E-1,5.428897074E-1,2.030638593E-1,7.399008796E-1
1.276368300E1,-4.976350357E-1,5.785053903E-1,9.274561107E-1,1.201034534E0
1.277367200E1,-2.872553959E-1,5.454554656E-1,1.887941973E0,1.986041848E0
1.278366000E1,-1.196233611E-1,4.550724220E-1,2.795202386E0,2.834529420E0
1.279364800E1,-1.850292921E-2,4.194377357E-1,3.423453548E0,3.449101994E0
1.280363600E1,-2.588006884E-2,5.120099768E-1,3.499541611E0,3.536893479E0
1.281362400E1,-1.545229062E-2,5.613517061E-1,2.988557528E0,3.040860176E0
1.282361200E1,9.636657245E-2,6.576395604E-1,2.299055613E0,2.393205595E0
1.283360000E1,1.168123487E-1,8.318588126E-1,1.984653166E0,2.155106122E0
1.284358900E1,1.295927176E-1,9.828763130E-1,2.180344271E0,2.395149528E0
1.285357700E1,2.004089311E-2,1.018983454E0,2.559642625E0,2.755086076E0
1.286356500E1,-1.636979916E-1,8.932028291E-1,2.786444426E0,2.930679250E0
1.287355300E1,-3.728873210E-1,7.008382049E-1,2.605319320E0,2.723583651E0
1.288354100E1,-5.241201817E-1,4.275150794E-1,2.283721290E0,2.381775396E0
1.289352900E1,-5.122517592E-1,2.155429870E-1,2.082655424E0,2.155531085E0
1.290351700E1,-3.460271491E-1,1.094818041E-1,1.995965189E0,2.028693691E0
1.291350600E1,-1.540548366E-1,2.121019006E-2,2.039262652E0,2.045183348E0
1.292349400E1,4.983453993E-2,-5.836193651E-2,2.002731587E0,2.004201439E0
1.293348200E1,3.209109825E-1,-1.925704461E-1,1.977029566E0,2.012141432E0
1.294347000E1,4.735716967E-1,-3.342093050E-1,2.028558739E0,2.109743247E0
1.295345729E1,4.903237503E-1,-4.638002685E-1,2.093841732E0,2.199932105E0
1.296344529E1,3.315373468E-1,-8.028838125E-1,1.681992513E0,1.893049984E0
1.297343429E1,3.322114576E-1,-8.263460577E-1,1.689130794E0,1.909548402E0
1.298342229E1,1.477104615E-1,-1.096540630E0,1.145074859E0,1.592299020E0
1.299341029E1,-4.156486668E-1,-1.288534249E0,-6.338966489E-2,1.355397570E0
1.300339829E1,-5.553839647E-1,-1.341413836E0,-5.369392884E-1,1.547949039E0
1.301338629E1,-6.002277964E-1,-1.286662263E0,-9.780672705E-1,1.724061708E0
1.302337429E1,-5.650240864E-1,-1.233541186E0,-1.426890773E0,1.968982822E0
1.303336229E1,-4.933680300E-1,-1.150038268E0,-1.809013333E0,2.199665718E0
1.304335129E1,-3.831185596E-1,-9.784610805E-1,-2.053418176E0,2.306662551E0
1.305333929E1,-2.688180652E-1,-8.333673942E-1,-2.168808884E0,2.338909220E0
1.306332729E1,-2.238172722E-1,-7.406527734E-1,-2.140388492E0,2.275944551E0
1.307331529E1,-1.730175397E-1,-6.647404191E-1,-1.951477818E0,2.068835559E0
1.308330329E1,-7.980923116E-2,-5.929266706E-1,-1.552071474E0,1.663387330E0
1.309329129E1,-3.649104763E-2,-5.545221582E-1,-1.204211259E0,1.326254568E0
1.310328029E1,-9.770569447E-2,-6.306727865E-1,-9.983319658E-1,1.184888721E0
1.311326829E1,-1.082191709E-1,-6.240695259E-1,-1.000889538E0,1.184463604E0
1.312325629E1,-4.131337428E-2,-6.602626213E-1,-9.811388129E-1,1.183337185E0
1.313324429E1,-7.955798361E-2,-5.841160861E-1,-1.072683991E0,1.223998374E0
1.314323229E1,-9.734673025E-2,-4.895329875E-1,-1.122418068E0,1.228389698E0
1.315322029E1,-1.418677409E-1,-4.341668719E-1,-1.147621906E0,1.235177464E0
1.316320829E1,-2.298896605E-1,-3.851531714E-1,-1.157610120E0,1.241472276E0
1.317319729E1,-2.419015042E-1,-3.581250018E-1,-1.232511783E0,1.306083899E0
1.318318529E1,-3.280488614E-1,-3.619347551E-1,-1.378580493E0,1.462565211E0
1.319317329E1,-4.311093994E-1,-3.675931057E-1,-1.330413469E0,1.446022131E0
1.320316129E1,-4.655914899E-1,-3.699755538E-1,-1.294312760E0,1.424395614E0
1.321314929E1,-5.398441120E-1,-3.498470986E-1,-1.372360809E0,1.515651295E0
1.322313729E1,-6.447568287E-1,-3.495389503E-1,-1.447249609E0,1.622473505E0
1.323312629E1,-5.314127194E-1,-2.609413540E-1,-1.559485159E0,1.668077885E0
1.324311429E1,-2.979269665E-1,-2.340874314E-2,-1.758227341E0,1.783443812E0
1.325310229E1,3.233656436E-2,2.286895743E-1,-1.853579056E0,1.867913245E0
1.326309029E1,4.042160446E-1,4.838910091E-1,-1.748954827E0,1.859135311E0
1.327307829E1,2.623780515E-1,5.411945996E-1,-1.288005368E0,1.421510346E0
1.328306629E1,3.137772332E-1,5.542637113E-1,-1.245555752E0,1.398954447E0
1.329305429E1,2.153713347E-1,5.051555783E-1,-1.252961251E0,1.368020053E0
1.330304329E1,-7.297306862E-2,4.128876847E-1,-1.136004074E0,1.210911460E0
1.331303129E1,-1.081069409E-1,3.483154204E-1,-1.215589941E0,1.269121605E0
1.332301929E1,-7.560303658E-2,3.677808014E-1,-1.392291629E0,1.442031385E0
1.333300729E1,-1.092742279E-1,5.003553066E-1,-1.456468329E0,1.543889984E0
1.334299529E1,-1.639886713E-1,6.860900652E-1,-1.280191149E0,1.461677543E0
1.335298329E1,-2.466639883E-1,8.281949472E-1,-1.060641065E0,1.368104332E0
1.336297229E1,-4.001784326E-1,9.106640768E-1,-8.012369442E-1,1.277275413E0
1.337296029E1,-5.993762591E-1,8.689541334E-1,-3.656182086E-1,1.117143617E0
1.338294829E1,-7.072790591E-1,7.147829372E-1,2.367052299E-1,1.033047763E0
1.339293629E1,-7.892600924E-1,4.469936165E-1,8.071297681E-1,1.214163601E0
1.340292429E1,-7.893463388E-1,2.572491297E-1,1.253735422E0,1.503694539E0
1.341291229E1,-7.172951203E-1,1.958615515E-1,1.373569429E0,1.561911333E0
1.342290129E1,-5.979185848E-1,2.016479561E-1,1.283001321E0,1.429776529E0
1.343288929E1,-3.732853336E-1,2.150719938E-1,1.165588646E0,1.242656346E0
1.344287729E1,-1.789686531E-3,3.669966897E-1,1.298571872E0,1.349436430E0
1.345286529E1,-3.916914549E-2,3.906597868E-1,1.290621412E0,1.349019244E0
1.346285329E1,3.199193678E-1,6.545104229E-1,1.667693732E0,1.819872160E0
1.347284129E1,5.771592151E-1,7.493317956E-1,2.010027743E0,2.221446022E0
1.348282929E1,5.778737814E-1,7.158892304E-1,2.383316914E0,2.554727972E0
1.349281829E1,3.371944548E-1,5.660818112E-1,2.662623788E0,2.742938962E0
1.350280629E1,4.221104980E-2,3.091545707E-1,2.728400871E0,2.746184559E0
1.351279429E1,-2.272983390E-1,8.227032423E-4,2.689755453E0,2.699342440E0
1.352278229E1,-4.039216739E-1,-2.874918061E-1,2.606686984E0,2.653416908E0
1.353277029E1,-4.143011029E-1,-4.843897766E-1,2.481834311E0,2.562377882E0
1.354275829E1,-3.077467074E-1,-6.172385162E-1,2.441527115E0,2.537074314E0
1.355274729E1,-1.199646283E-1,-6.208231518E-1,2.444239638E0,2.524702024E0
1.356273529E1,7.543019654E-2,-6.289469808E-1,2.574461809E0,2.651248314E0
1.357272329E1,1.288850583E-1,-6.618396154E-1,2.742899042E0,2.824559822E0
1.358271129E1,1.690206755E-1,-7.468788886E-1,2.727379947E0,2.832842642E0
1.359269929E1,1.623284275E-1,-8.573959422E-1,2.513473595E0,2.660644252E0
1.360268729E1,1.080859641E-1,-9.263851932E-1,2.070563382E0,2.270925983E0
1.361267529E1,1.069176904E-1,-9.356951299E-1,1.430988502E0,1.713092193E0
1.362266429E1,6.332857976E-2,-8.772361296E-1,6.888136983E-1,1.117147281E0
1.363265229E1,2.922182567E-2,-7.855406785E-1,-3.580776393E-2,7.868991477E-1
1.364264029E1,1.126182323E-1,-7.066658324E-1,-5.818967754E-1,9.223141125E-1
1.365262829E1,2.377528499E-1,-6.569592369E-1,-9.874310017E-1,1.209604001E0
1.366261629E1,3.163022802E-1,-5.916250804E-1,-1.095629634E0,1.284706840E0
1.367260429E1,4.219167724E-1,-5.666989848E-1,-9.436376953E-1,1.178818732E0
1.368259329E1,5.481827532E-1,-5.831010094E-1,-6.185623258E-1,1.011499120E0
1.369258129E1,6.534433061E-1,-6.296711585E-1,-2.182753909E-1,9.333370604E-1
1.370256929E1,6.876769996E-1,-6.374654970E-1,4.766299367E-2,9.389002484E-1
1.371255729E1,6.912052095E-1,-6.770315588E-1,1.219588852E-1,9.751975917E-1
1.372254529E1,6.750982500E-1,-6.808503753E-1,2.507835710E-1,9.910637115E-1
1.373253329E1,6.512525006E-1,-6.721234059E-1,3.565848452E-1,1.001515074E0
1.374252129E1,5.794160941E-1,-6.611987606E-1,2.711447453E-1,9.200142847E-1
1.375251029E1,4.875034189E-1,-6.832556275E-1,-5.989887714E-2,8.414782893E-1
1.376249829E1,3.298445778E-1,-6.992255428E-1,-5.776721621E-1,9.651004777E-1
1.377248629E1,1.536692858E-1,-6.982695231E-1,-1.103237447E0,1.314658678E0
1.378247429E1,3.375107892E-2,-6.060299885E-1,-1.613373098E0,1.723770355E0
1.379246229E1,-4.207612529E-2,-5.130969742E-1,-2.031522108E0,2.095738767E0
1.380245029E1,-6.771865100E-2,-3.836545300E-1,-2.396414677E0,2.427875598E0
1.381243929E1,-4.058998235E-2,-2.484271431E-1,-2.689286506E0,2.701041559E0
1.382242729E1,6.277636506E-2,-1.113824415E-1,-2.826876753E0,2.829766615E0
1.383241529E1,1.469687422E-1,1.333720654E-2,-2.857859979E0,2.861667583E0
1.384240329E1,2.632440607E-1,1.140019941E-1,-2.764271784E0,2.779117196E0
1.385239129E1,3.349057815E-1,1.509166360E-1,-2.494715728E0,2.521615410E0
1.386237929E1,3.874090272E-1,1.350224420E-1,-2.110589327E0,2.150093980E0
1.387236829E1,4.687867009E-1,1.349347338E-1,-1.707543091E0,1.775858035E0
1.388235629E1,5.286064944E-1,1.314015538E-1,-1.415105710E0,1.516316380E0
1.389234429E1,5.697073773E-1,1.906744865E-1,-1.213629954E0,1.354186443E0
1.390233229E1,5.949734154E-1,2.497179160E-1,-1.073775666E0,1.252735640E0
1.391232029E1,5.831579467E-1,2.941298577E-1,-9.913574070E-1,1.187171038E0
1.392230829E1,5.456425765E-1,3.255352530E-1,-9.613126588E-1,1.152311178E0
1.393229629E1,5.454422363E-1,3.370826268E-1,-8.722092783E-1,1.082534506E0
1.394228529E1,5.384085475E-1,3.775243092E-1,-7.417672527E-1,9.912754537E-1
1.395227329E1,5.459959676E-1,4.101014864E-1,-4.793763739E-1,8.343239980E-1
1.396226117E1,5.962404339E-1,4.844102418E-1,-2.094794244E-1,7.962647591E-1
1.397224917E1,6.266814771E-1,5.293893635E-1,-2.518278837E-2,8.207417041E-1
1.398223717E1,6.540527321E-1,5.923194373E-1,2.998042881E-2,8.829077632E-1
1.399222517E1,6.681154320E-1,6.591884878E-1,-6.850948691E-2,9.410638888E-1
1.400221417E1,6.108598617E-1,7.528114736E-1,-2.734789538E-1,1.007306122E0
1.401220217E1,5.342750777E-1,8.531976414E-1,-5.414422292E-1,1.143046701E0
1.402219017E1,5.314503609E-1,9.235984102E-1,-7.555520636E-1,1.306266600E0
1.403217817E1,5.137390716E-1,9.874637461E-1,-8.031466448E-1,1.372609565E0
1.404216617E1,5.235748923E-1,1.088600112E0,-6.970103252E-1,1.394634097E0
1.405215417E1,5.470534366E-1,1.128934498E0,-5.295998633E-1,1.361703557E0
1.406214317E1,6.038763859E-1,1.111381156E0,-3.590675730E-1,1.314824812E0
1.407213117E1,6.890970690E-1,1.045847902E0,-4.608950794E-2,1.253306366E0
1.408211917E1,7.585469344E-1,9.797881061E-1,2.829379946E-1,1.270996496E0
1.409210717E1,8.006142888E-1,9.034108981E-1,6.522498894E-1,1.372065745E0
1.410209517E1,8.578790684E-1,8.224763703E-1,1.140636823E0,1.647263257E0
1.411208317E1,7.842889358E-1,7.377493384E-1,1.485567582E0,1.834746376E0
1.412207117E1,5.942513573E-1,6.394143739E-1,1.617469073E0,1.837985751E0
1.413206017E1,3.823144213E-1,5.633368358E-1,1.602476227E0,1.741103893E0
1.414204817E1,1.969850940E-1,4.261898080E-1,1.510525838E0,1.581811994E0
1.415203617E1,1.087634736E-1,2.760298017E-1,1.451018724E0,1.481039257E0
1.416202417E1,8.299903348E-3,1.591170636E-1,1.533177951E0,1.541434967E0
1.417201217E1,-1.797879942E-1,7.389331073E-2,1.644324165E0,1.655773506E0
1.418200017E1,-4.341129313E-1,3.401325345E-3,1.605569404E0,1.663225396E0
1.419198917E1,-7.278684942E-1,-3.817647099E-3,1.280389954E0,1.472822309E0
1.420197717E1,-8.983811963E-1,-4.915461838E-3,7.923152626E-1,1.197863269E0
1.421196517E1,-8.992435145E-1,-2.917497486E-2,5.102286226E-1,1.034322641E0
1.422195317E1,-8.555406207E-1,-2.439195246E-2,4.271408576E-1,9.565532046E-1
1.423194117E1,-7.273988897E-1,-6.826331913E-3,4.219871217E-1,8.409690092E-1
1.424192917E1,-6.007651556E-1,-3.778616935E-2,5.535991752E-1,8.178133121E-1
1.425191717E1,-3.272775405E-1,-1.616196719E-1,8.588694406E-1,9.332139212E-1
1.426190617E1,-6.967469081E-2,-3.388642734E-1,1.343303071E0,1.387136150E0
1.427189417E1,6.240583431E-2,-4.359917879E-1,1.758958828E0,1.813262112E0
1.428188217E1,4.550690599E-2,-5.874750191E-1,2.056630636E0,2.139375458E0
1.429187017E1,-5.101304624E-2,-7.394298282E-1,2.146408786E0,2.270777285E0
1.430185817E1,-1.674621001E-1,-9.018382895E-1,1.940410793E0,2.146287470E0
1.431184617E1,-2.542732259E-1,-1.084095124E0,1.427771949E0,1.810649013E0
1.432183517E1,-4.181118064E-1,-1.115580334E0,7.091701949E-1,1.386455672E0
1.433182317E1,-4.488229910E-1,-1.012393350E0,2.567804754E-1,1.136801911E0
1.434181117E1,-3.851921285E-1,-9.709289896E-1,-1.496214777E-1,1.055207404E0
1.435179917E1,-3.493462846E-1,-9.253101826E-1,-5.156302804E-1,1.115399635E0
1.436178717E1,-2.699326175E-1,-8.700934634E-1,-7.498276395E-1,1.179901581E0
1.437177517E1,-2.335407533E-1,-7.656855807E-1,-7.078001922E-1,1.068548924E0
1.438176417E1,-2.323898020E-1,-6.868121964E-1,-3.520205086E-1,8.059990395E-1
1.439175217E1,-1.957108029E-1,-6.552030256E-1,1.758824927E-1,7.060654179E-1
1.440174017E1,-8.744876459E-2,-7.654204094E-1,5.882345724E-1,9.692964468E-1
1.441172817E1,-8.732770896E-2,-8.789479020E-1,8.622719353E-1,1.234377752E0
1.442171617E1,-1.592100343E-1,-9.563565588E-1,9.414993685E-1,1.351438775E0
1.443170417E1,-2.073436740E-1,-9.984506643E-1,9.547368801E-1,1.396931508E0
1.444169317E1,-2.525852078E-1,-1.010680408E0,8.126957327E-1,1.321267773E0
1.445168117E1,-2.929088129E-1,-9.736882907E-1,4.491339898E-1,1.111569072E0
1.446166917E1,-2.943403209E-1,-8.998891202E-1,-9.169486642E-2,9.512332005E-1
1.447165717E1,-3.080221478E-1,-7.857266200E-1,-6.149931854E-1,1.044251207E0
1.448164517E1,-2.500831477E-1,-6.661762029E-1,-1.007254232E0,1.233245070E0
1.449163317E1,-2.096161761E-1,-5.456995869E-1,-1.299796863E0,1.425201342E0
1.450162117E1,-2.391840473E-1,-4.288067293E-1,-1.509668051E0,1.587508061E0
1.451161017E1,-2.614536432E-1,-4.140328619E-1,-1.711126850E0,1.779813562E0
1.452159817E1,-2.982193273E-1,-4.137726608E-1,-1.870471078E0,1.938763687E0
1.453158617E1,-3.373358113E-1,-4.083581391E-1,-1.999802717E0,2.068758740E0
1.454157417E1,-3.034655588E-1,-3.594575822E-1,-2.110723813E0,2.162511529E0
1.455156217E1,-1.898281385E-1,-2.505692706E-1,-2.100394122E0,2.123787925E0
1.456155017E1,-6.694272548E-2,-8.200047523E-2,-1.961154960E0,1.964009721E0
1.457153917E1,7.272828955E-2,3.631179392E-2,-1.781291099E0,1.783144954E0
1.458152717E1,1.269765271E-1,6.760433793E-2,-1.628081769E0,1.634424557E0
1.459151517E1,2.013085617E-1,5.902179480E-2,-1.518372216E0,1.532795778E0
1.460150317E1,2.234150934E-1,5.160811007E-2,-1.415624943E0,1.434075200E0
1.461149117E1,2.325085736E-1,5.745123267E-2,-1.452590455E0,1.472202402E0
1.462147917E1,2.978832585E-1,1.039023909E-1,-1.585947903E0,1.617022230E0
1.463146817E1,3.493515836E-1,2.031930828E-1,-1.689730718E0,1.737389956E0
1.464145617E1,3.852635742E-1,3.175903487E-1,-1.767584056E0,1.836748498E0
1.465144417E1,4.344596347E-1,3.812656501E-1,-1.787907223E0,1.879023924E0
1.466143217E1,4.729835034E-1,4.258989090E-1,-1.728751527E0,1.842195733E0
1.467142017E1,4.850334089E-1,4.861196753E-1,-1.636269041E0,1.774527013E0
1.468140817E1,3.761177980E-1,5.786521554E-1,-1.611959242E0,1.753486673E0
1.469139617E1,2.146754429E-1,6.289516586E-1,-1.470339679E0,1.613556477E0
1.470138517E1,1.198263691E-1,6.015039513E-1,-1.011101115E0,1.182578043E0
1.471137317E1,-1.548627757E-2,4.340315089E-1,-3.524204582E-1,5.593061370E-1
1.472136117E1,-1.388682106E-1,3.057050058E-1,2.781701750E-1,4.360258900E-1
1.473134917E1,-1.765343658E-1,1.657647631E-1,1.021608562E0,1.049917327E0
1.474133717E1,-2.159281723E-1,3.299963862E-2,1.763364705E0,1.776842434E0
1.475132517E1,-3.315277719E-1,-9.106307477E-2,2.354176145E0,2.379148686E0
1.476131417E1,-4.150734470E-1,-1.998069602E-1,2.748242227E0,2.786582877E0
1.477130217E1,-5.583694068E-1,-2.195261103E-1,2.715559800E0,2.781048927E0
1.478129017E1,-7.052501484E-1,-1.865457675E-1,2.162231936E0,2.281978098E0
1.479127817E1,-7.560383327E-1,-1.170498553E-1,1.628599833E0,1.799342114E0
1.480126617E1,-7.625986893E-1,-5.050854117E-2,1.541651736E0,1.720696937E0
1.481125417E1,-6.341359462E-1,-1.793487221E-2,1.902498032E0,2.005479698E0
1.482124317E1,-4.218789117E-1,-8.932762116E-2,2.524586229E0,2.561151473E0
1.483123117E1,-3.169808496E-1,-3.090034202E-1,3.179486661E0,3.210155043E0
1.484121917E1,-2.674493781E-1,-5.275243941E-1,3.677828479E0,3.725081674E0
1.485120717E1,-3.148958056E-1,-6.816625535E-1,3.947687421E0,4.018464779E0
1.486119517E1,-3.845642837E-1,-7.959247488E-1,3.937022100E0,4.035037659E0
1.487118317E1,-3.916221654E-1,-8.773127282E-1,3.729831276E0,3.851582388E0
1.488117117E1,-3.863132590E-1,-9.095118830E-1,3.344670503E0,3.487588074E0
1.489116017E1,-4.116606465E-1,-8.876544061E-1,3.036431022E0,3.190189365E0
1.490114817E1,-3.681340097E-1,-8.335121128E-1,2.869170249E0,3.010382535E0
1.491113617E1,-3.193521879E-1,-8.246348700E-1,2.577950258E0,2.725405661E0
1.492112417E1,-2.550220166E-1,-8.985808057E-1,2.010273911E0,2.216683308E0
1.493111217E1,-1.535359693E-1,-9.701255822E-1,1.215401661E0,1.562663795E0
1.494110017E1,-1.380917392E-2,-1.009464480E0,3.533127433E-1,1.069597646E0
1.495108917E1,2.094949743E-1,-9.476184797E-1,-5.637914568E-1,1.122376824E0
1.496107779E1,5.007529172E-1,-7.854971167E-1,-1.312671263E0,1.609616429E0
1.497106579E1,7.929344827E-1,-5.012695187E-1,-1.837573473E0,2.063175342E0
1.498105379E1,1.032010978E0,-2.395358670E-1,-2.317294832E0,2.547995179E0
1.499104179E1,1.202947749E0,-9.195185155E-2,-2.668863936E0,2.928885990E0
1.500102979E1,1.301025656E0,1.981036663E-3,-2.738034743E0,3.031419789E0
1.501101879E1,1.344622057E0,-2.938488990E-2,-2.678141128E0,2.996883690E0
1.502100679E1,1.320293254E0,-1.771922690E-1,-2.638032153E0,2.955297788E0
1.503099479E1,1.308095524E0,-3.222792310E-1,-2.506202583E0,2.845352208E0
1.504098279E1,1.407062573E0,-3.387590235E-1,-2.187582539E0,2.622994496E0
1.505097079E1,1.745906381E0,-2.170147312E-1,-1.826336294E0,2.535899987E0
1.506095879E1,2.322145683E0,-1.202129066E-2,-1.585542691E0,2.811841160E0
1.507094679E1,2.905351357E0,2.477903813E-1,-1.265115273E0,3.178519032E0
1.508093579E1,3.189296535E0,4.148017707E-1,-6.641115510E-1,3.284009295E0
1.509092379E1,3.069765706E0,2.798799008E-1,4.900843799E-2,3.082887619E0
1.510091179E1,2.610106143E0,1.336205721E-2,7.779913384E-1,2.723619493E0
1.511089979E1,1.900048195E0,-3.373156384E-1,1.292462116E0,2.322589784E0
1.512088779E1,1.117615969E0,-7.329198307E-1,1.501049255E0,2.009822330E0
1.513087579E1,4.173805390E-1,-1.111502486E0,1.400360202E0,1.835933818E0
1.514086479E1,-1.598023207E-1,-1.338635531E0,1.092131830E0,1.735002536E0
1.515085279E1,-5.448415080E-1,-1.357826093E0,6.994755113E-1,1.621668881E0
1.516084079E1,-5.778101929E-1,-1.169154863E0,1.796393287E-1,1.316456608E0
1.517082879E1,-3.842375340E-1,-8.575535247E-1,-3.599054790E-1,1.006264619E0
1.518081679E1,-2.575088740E-1,-5.215201807E-1,-6.827670926E-1,8.969197410E-1
1.519080479E1,-1.731259690E-1,-2.812414250E-1,-8.505646402E-1,9.124305713E-1
1.520079379E1,-1.282080421E-1,-1.622552642E-1,-1.001445023E0,1.022573326E0
1.521078179E1,-1.808028881E-1,-4.930781543E-2,-1.129646396E0,1.145085990E0
1.522076979E1,-2.661346865E-1,7.978057981E-2,-1.276781053E0,1.306660809E0
1.523075779E1,-3.143437553E-1,1.404264387E-1,-1.377894030E0,1.420254744E0
1.524074579E1,-3.590516393E-1,1.652358824E-1,-1.368478258E0,1.424413465E0
1.525073379E1,-3.823761094E-1,2.052349305E-1,-1.288101262E0,1.359241600E0
1.526072179E1,-3.668927920E-1,2.571158132E-1,-1.234698642E0,1.313468537E0
1.527071079E1,-4.439669150E-1,3.346247497E-1,-1.241486090E0,1.360282344E0
1.528069879E1,-5.422499854E-1,4.450418159E-1,-1.287589046E0,1.466281970E0
1.529068679E1,-6.007785311E-1,4.964332867E-1,-1.328241813E0,1.540002327E0
1.530067479E1,-6.591004872E-1,5.262663656E-1,-1.328828874E0,1.573898318E0
1.531066279E1,-7.552065662E-1,5.480598155E-1,-1.173853101E0,1.499545805E0
1.532065079E1,-9.200767053E-1,5.658552316E-1,-9.595579094E-1,1.444813022E0
1.533063979E1,-1.104646479E0,5.193087637E-1,-7.774452084E-1,1.447185713E0
1.534062779E1,-1.274459708E0,4.301653299E-1,-6.284733564E-1,1.484677918E0
1.535061579E1,-1.386770980E0,3.703395429E-1,-3.777979589E-1,1.484256186E0
1.536060379E1,-1.346178878E0,3.625311711E-1,-6.976312995E-2,1.395884421E0
1.537059179E1,-1.296976166E0,4.021536586E-1,1.659264386E-1,1.367993540E0
1.538057979E1,-1.229088969E0,4.650170740E-1,2.995142663E-1,1.347816519E0
1.539056879E1,-1.128310600E0,5.222317868E-1,3.932708609E-1,1.304021786E0
1.540055679E1,-1.108433429E0,5.173622257E-1,5.263318545E-1,1.331658199E0
1.541054479E1,-1.119470779E0,4.603626904E-1,7.416760361E-1,1.419588664E0
1.542053279E1,-1.131275357E0,4.367215204E-1,1.011042643E0,1.578834015E0
1.543052079E1,-1.119373277E0,4.041358647E-1,1.206033252E0,1.694354902E0
1.544050879E1,-1.138720544E0,3.214465874E-1,1.222836980E0,1.701570647E0
1.545049679E1,-1.142251093E0,2.363596594E-1,1.077867547E0,1.588207133E0
1.546048579E1,-1.175282964E0,1.844045171E-1,8.831441563E-1,1.481633785E0
1.547047379E1,-1.154145718E0,1.197468835E-1,6.549372697E-1,1.332416782E0
1.548046179E1,-1.152101531E0,9.896295547E-2,5.176189184E-1,1.266910001E0
1.549044979E1,-1.295176247E0,1.251877177E-1,4.270595813E-1,1.369501136E0
1.550043779E1,-1.355700046E0,1.346189842E-1,2.616640699E-1,1.387268168E0
1.551042579E1,-1.254267811E0,1.444659877E-1,1.744575262E-1,1.274556233E0
1.552041479E1,-1.077628469E0,1.145413998E-1,3.785744691E-1,1.147920502E0
1.553040279E1,-9.109458395E-1,-5.287637115E-2,9.086619902E-1,1.287744092E0
1.554039079E1,-7.178196886E-1,-3.452468017E-1,1.676913621E0,1.856475088E0
1.555037879E1,-5.911519676E-1,-5.597492766E-1,2.242286750E0,2.385504092E0
1.556036679E1,-6.072551264E-1,-7.303578731E-1,2.478592615E0,2.654355433E0
1.557035479E1,-6.327165346E-1,-9.232437766E-1,2.273051291E0,2.533667589E0
1.558034279E1,-6.649304536E-1,-9.622789112E-1,1.599139221E0,1.981251993E0
1.559033179E1,-6.220640040E-1,-8.705504233E-1,8.918261021E-1,1.392901813E0
1.560031979E1,-5.198348670E-1,-7.401692086E-1,5.786597568E-1,1.073743852E0
1.561030779E1,-3.846257160E-1,-7.017182109E-1,7.664389944E-1,1.108049693E0
1.562029579E1,-3.241118945E-1,-7.633849937E-1,1.161854614E0,1.427484260E0
1.563028379E1,-3.731454390E-1,-9.242632386E-1,1.373750693E0,1.697259856E0
1.564027179E1,-4.530318169E-1,-1.092338821E0,1.319892574E0,1.772162051E0
1.565026079E1,-5.588450047E-1,-1.223138989E0,1.048543176E0,1.705232980E0
1.566024879E1,-5.397318820E-1,-1.248604490E0,6.688536429E-1,1.515812941E0
1.567023679E1,-4.852598788E-1,-1.084722238E0,2.916708112E-2,1.188675819E0
1.568022479E1,-4.593654112E-1,-8.856219140E-1,-3.163524932E-1,1.046623932E0
1.569021279E1,-3.364907790E-1,-1.056659404E0,-3.656714183E-1,1.167677492E0
1.570020079E1,-3.412751535E-1,-1.236106067E0,-6.604389149E-1,1.442430761E0
1.571018979E1,-2.551422317E-1,-1.265021133E0,-9.680293554E-1,1.613213209E0
1.572017779E1,-2.446242968E-1,-1.318274649E0,-1.355605613E0,1.906660871E0
1.573016579E1,-4.555909604E-1,-1.091902911E0,-1.271533762E0,1.736840004E0
1.574015379E1,-5.874850690E-1,-8.935808516E-1,-8.865133220E-1,1.389075705E0
1.575014179E1,-3.973179016E-1,-1.035344549E0,-6.293293887E-1,1.275090322E0
1.576012979E1,-4.833318691E-1,-1.113148477E0,-5.802349967E-1,1.345132662E0
1.577011879E1,-6.777142943E-1,-1.143403140E0,-4.897429025E-1,1.416515272E0
1.578010679E1,-6.392728713E-1,-1.215945744E0,-4.645308781E-1,1.450166471E0
1.579009479E1,-6.999735479E-1,-1.242413458E0,-4.799651885E-1,1.504633095E0
1.580008279E1,-7.626070216E-1,-1.218536938E0,-3.712099010E-1,1.484654347E0
1.581007079E1,-7.568798932E-1,-1.116025161E0,-2.983641189E-1,1.381086703E0
1.582005879E1,-7.216914225E-1,-1.017605412E0,-2.629703379E-1,1.274955953E0
1.583004679E1,-6.859270010E-1,-9.015940221E-1,-2.238220596E-1,1.154757094E0
1.584003579E1,-6.684569094E-1,-7.280192792E-1,-1.458962166E-1,9.990657719E-1
1.585002379E1,-6.466672602E-1,-5.524347022E-1,-1.202859968E-1,8.589711093E-1
1.586001179E1,-7.022717229E-1,-3.252635036E-1,-2.067002428E-1,8.010661084E-1
1.586999979E1,-6.123800282E-1,-1.560683253E-1,-5.805677032E-1,8.581523636E-1
1.587998779E1,-6.088974631E-1,-1.152747868E-1,-9.844705564E-1,1.163282714E0
1.588997579E1,-6.813811563E-1,-1.607080910E-1,-1.268259906E0,1.448651290E0
1.589996479E1,-7.625788819E-1,-2.402813870E-1,-1.448065295E0,1.654132641E0
1.590995279E1,-7.401386569E-1,-2.293299906E-1,-1.373920262E0,1.577356764E0
1.591994079E1,-7.065931807E-1,-1.100811437E-1,-1.306215937E0,1.489158102E0
1.592992879E1,-6.272157665E-1,-3.766586289E-2,-1.244436595E0,1.394073446E0
1.593991679E1,-5.577434259E-1,2.168615341E-2,-1.120698987E0,1.252004088E0
1.594990479E1,-4.629245748E-1,8.139148772E-2,-9.890495110E-1,1.095053730E0
1.595989237E1,-3.930039721E-1,2.317763194E-1,-7.900997525E-1,9.123760208E-1
1.596988138E1,-4.271883297E-1,3.728874671E-1,-5.898571748E-1,8.182092757E-1
1.597986937E1,-5.161583570E-1,3.988663539E-1,-4.647770458E-1,8.009566282E-1
1.598985737E1,-6.357752131E-1,3.060331808E-1,-4.763364065E-1,8.513300191E-1
1.599984537E1,-7.678673961E-1,2.622511303E-1,-6.226109380E-1,1.022761152E0
1.600983337E1,-8.436981086E-1,3.467350642E-1,-7.220451790E-1,1.163357616E0
1.601982137E1,-8.832399045E-1,4.068251453E-1,-7.496972466E-1,1.227870266E0
1.602981037E1,-8.284642115E-1,5.285476568E-1,-7.034574652E-1,1.208539607E0
1.603979837E1,-7.389896791E-1,6.552625211E-1,-5.450084460E-1,1.128055373E0
1.604978637E1,-7.015699840E-1,7.277878757E-1,-3.697802567E-1,1.076388904E0
1.605977438E1,-6.506610547E-1,7.446816511E-1,-1.558920318E-1,1.001105836E0
1.606976237E1,-5.654216240E-1,7.215673153E-1,7.259435177E-2,9.195819394E-1
1.607975038E1,-4.291953864E-1,6.625097063E-1,3.387204319E-1,8.589873816E-1
1.608973937E1,-3.292750225E-1,6.112331334E-1,6.362185782E-1,9.417016847E-1
1.609972737E1,-3.619503599E-1,5.601835786E-1,9.045098823E-1,1.123811297E0
1.610971537E1,-4.499363740E-1,5.118449391E-1,1.000842175E0,1.210831550E0
1.611970337E1,-5.401831774E-1,4.401285468E-1,9.468793917E-1,1.175623913E0
1.612969137E1,-7.482841207E-1,3.703719950E-1,8.480228555E-1,1.190061891E0
1.613967937E1,-8.872820116E-1,3.932838710E-1,7.282859123E-1,1.213400981E0
1.614966737E1,-9.462227494E-1,3.951948872E-1,6.359917063E-1,1.206649054E0
1.615965637E1,-9.478747340E-1,3.575323865E-1,7.547609353E-1,1.263313100E0
1.616964437E1,-8.649753955E-1,3.581007358E-1,1.071718615E0,1.423024723E0
