"Time (s)","Linear Acceleration x (m/s^2)","Linear Acceleration y (m/s^2)","Linear Acceleration z (m/s^2)","Absolute acceleration (m/s^2)"
3.682499999E-3,-4.061636791E-1,9.693098956E-1,-1.440052271E0,1.782773444E0
1.366950000E-2,-5.011569598E-1,1.488911605E0,-6.394690454E-1,1.696153509E0
2.365750000E-2,-7.798995772E-1,1.618884099E0,2.406655490E-2,1.797111092E0
3.364550000E-2,-7.915425530E-1,1.636598239E0,1.800942421E-4,1.817964092E0
4.363250000E-2,-3.655600289E-1,7.882953018E-1,2.851137435E-1,9.145126922E-1
5.362050000E-2,1.713839373E-1,-4.177613389E-1,1.106421840E-1,4.649071769E-1
6.360750000E-2,6.860348091E-1,-1.265152110E0,4.752172494E-1,1.515613756E0
7.359550000E-2,1.113672388E-1,-1.142537752E0,1.573393346E0,1.947655462E0
8.358250000E-2,-2.160990572E-1,-1.735785728E0,1.970688846E0,2.635007670E0
9.357050000E-2,1.324031526E0,-1.818306313E0,9.784239507E-1,2.452878055E0
1.035585000E-1,1.302307073E0,-1.784507067E0,9.353288019E-1,2.399022541E0
1.135455000E-1,1.348743028E0,-1.589489561E0,1.449238247E-1,2.089638183E0
1.235335000E-1,5.894876307E-1,-2.163490257E0,-6.318869609E-1,2.329692445E0
1.335205000E-1,1.422917590E0,-1.456251982E0,-7.555397844E-1,2.171682451E0
1.435085000E-1,1.440278266E0,-1.273841073E0,-8.993111229E-1,2.122694763E0
1.534955000E-1,6.024234259E-1,1.594073778E-1,-5.163904184E-1,8.093106699E-1
1.634835000E-1,-1.565344361E0,1.090217451E0,-8.397163010E-1,2.084226602E0
1.734715000E-1,-4.043063110E-1,2.158939369E0,1.384340000E-1,2.200828654E0
1.834585000E-1,2.030164677E0,1.599556713E0,8.907151312E-1,2.733774631E0
1.934465000E-1,-6.643547952E-1,7.294231957E-1,5.158477968E-1,1.113339320E0
2.034335000E-1,7.525445482E-1,4.251077807E-1,1.788266827E0,1.986186841E0
2.134215000E-1,1.160739842E0,-7.727937484E-1,1.835134599E0,2.304831047E0
2.234085000E-1,9.623903006E-2,-1.982399064E0,7.338115311E-1,2.116045218E0
2.333965000E-1,9.318804064E-1,-7.423484659E-1,-8.078951687E-1,1.439505797E0
2.433835000E-1,2.022163347E0,1.834914744E-2,-2.941419030E0,3.569513580E0
2.533715000E-1,2.105108001E0,-8.237130564E-1,-3.007303702E0,3.762161407E0
2.633595000E-1,5.814690515E-1,-1.498387018E0,-1.631360303E0,2.290110555E0
2.733465000E-1,1.109166669E0,-1.411702631E0,-1.231065182E0,2.176850133E0
2.833345000E-1,1.714129980E0,-1.013144132E0,-6.588011098E-1,2.097312929E0
2.933215000E-1,1.938812603E0,-1.012673432E-1,1.701457894E0,2.581512803E0
3.033095000E-1,1.036981477E0,-5.009321344E-1,2.499618033E0,2.752154410E0
3.132965000E-1,8.217533621E-1,-4.334406477E-1,2.444640757E0,2.615228062E0
3.232845000E-1,-1.354856292E0,-1.262245460E0,1.435584998E-1,1.857285174E0
3.332725000E-1,-4.016192815E0,-2.781294199E0,-1.889562821E-1,4.888875804E0
3.432595000E-1,-4.054955470E0,-2.771395447E0,-1.958372855E-1,4.915450013E0
3.532475000E-1,-3.212773398E0,-2.338570511E0,1.789765468E0,4.358220437E0
3.632345000E-1,2.894364439E-2,-9.892927551E-1,-7.338729268E-1,1.232114996E0
3.732225000E-1,2.988974727E0,7.047075999E-1,-1.360625448E0,3.358851638E0
3.832095000E-1,2.830854029E0,1.259358689E0,-1.220006343E0,3.329885031E0
3.931975000E-1,3.638737503E0,1.065293110E0,-2.514323781E0,4.549404807E0
4.031855000E-1,6.098360581E0,1.330252963E0,-1.552687186E0,6.431983537E0
4.131725000E-1,4.079018809E0,6.393164331E-1,2.598690916E0,4.878556592E0
4.231605000E-1,4.322410914E0,1.293437431E0,-5.897642040E-1,4.550169043E0
4.331475000E-1,4.108565959E0,9.699144977E-1,-2.620559503E0,4.968740331E0
4.431355000E-1,2.848352991E0,6.059107053E-1,-3.999813595E0,4.947600564E0
4.531225000E-1,1.370522737E0,5.293241671E-1,-4.026751133E0,4.286401910E0
4.631105000E-1,-2.441651076E-1,3.999200222E-1,-1.944926598E0,2.000572942E0
4.730985000E-1,-1.118271223E-1,5.975819314E-1,-2.188525695E0,2.271399170E0
4.830855000E-1,7.628102124E-2,-7.600854099E-2,-3.048431847E0,3.050333231E0
4.930735000E-1,3.665772982E-1,-1.607472088E0,-3.078970685E0,3.492621638E0
5.030605000E-1,-2.514552699E-1,-3.185590277E0,-2.917569991E0,4.327057871E0
5.130485000E-1,-1.793200269E0,-3.904691675E0,-3.225241708E0,5.372556967E0
5.230355000E-1,-2.922837163E0,-3.695159918E0,-3.580978707E0,5.917819903E0
5.330235000E-1,-1.971467695E0,-4.313617579E0,-4.670141321E0,6.656140131E0
5.430105000E-1,-1.038924799E0,-6.266478556E0,-4.372302867E0,7.711365028E0
5.529985000E-1,-1.405911548E0,-6.575659440E0,-1.670260659E0,6.928611334E0
5.629865000E-1,-2.242998064E0,-6.214524291E0,3.746194124E-2,6.607023224E0
5.729735000E-1,-2.519628082E0,-6.167289898E0,-3.994864511E-1,6.674097676E0
5.829615000E-1,-2.847781134E0,-6.228426046E0,-2.287222018E0,7.220424708E0
5.929485000E-1,-3.353802685E0,-6.146229397E0,-2.980695947E0,7.609775067E0
6.029365000E-1,-3.665847534E0,-5.348893715E0,-3.202163917E0,7.232078254E0
6.129235000E-1,-4.428473267E0,-5.167646402E0,-3.689077352E0,7.741139226E0
6.229115000E-1,-4.540168242E0,-5.601468288E0,-4.935609589E0,8.737838215E0
6.328995000E-1,-3.986092811E0,-5.147154835E0,-6.069683497E0,8.900741348E0
6.428865000E-1,-3.762451723E0,-4.419556848E0,-5.643220916E0,8.095336188E0
6.528745000E-1,-3.074253151E0,-3.486639730E0,-3.837504244E0,6.027779680E0
6.628615000E-1,-2.336011770E0,-2.943502100E0,-7.326765865E-1,3.828572917E0
6.728495000E-1,-3.103731304E0,-3.373095865E0,2.577809340E0,5.258899573E0
6.828365000E-1,-4.262468183E0,-4.879850541E0,4.040230134E0,7.635773428E0
6.928245000E-1,-3.071791474E0,-6.363736464E0,3.980018431E0,8.110091945E0
7.028125000E-1,1.883095801E-2,-6.859914812E0,3.673234321E0,7.781480335E0
7.127995000E-1,2.077150855E0,-5.696553955E0,4.036314254E0,7.284031534E0
7.227875000E-1,2.562770886E0,-4.519507105E0,3.546864297E0,6.290785756E0
7.327745000E-1,3.076373352E0,-3.599930410E0,3.199363686E0,5.714849075E0
7.427625000E-1,5.153606068E0,-1.612241955E0,2.922193385E0,6.139885488E0
7.527495000E-1,5.280649107E0,-1.636796898E0,3.546290685E0,6.568145606E0
7.627375000E-1,6.497340079E0,-1.957178561E0,4.149123416E0,7.953691039E0
7.727255000E-1,6.448227561E0,-1.509157735E0,4.299773419E0,7.895900658E0
7.827125000E-1,8.787033130E0,-1.563298421E0,4.248645950E0,9.884677313E0
7.927005000E-1,9.968575319E0,-5.769393598E-1,3.806304671E0,1.068612690E1
8.026875000E-1,1.164647478E1,8.323300982E-1,3.552840151E0,1.220474585E1
8.126755000E-1,1.218104946E1,1.763511178E0,2.587716862E0,1.257713068E1
8.226625000E-1,1.101072106E1,1.868050038E0,2.565179354E0,1.145887142E1
8.326505000E-1,1.221286883E1,2.784487363E0,2.994960229E0,1.287933701E1
8.426375000E-1,1.431339101E1,4.220723741E0,2.760371692E0,1.517587964E1
8.526255000E-1,1.214590418E1,2.706782252E0,3.794369334E0,1.300949258E1
8.626135000E-1,8.683405266E0,1.765218272E0,1.693050182E0,9.021304866E0
8.726005000E-1,8.235682209E0,2.196672913E0,5.642738521E-2,8.523791257E0
8.825885000E-1,7.933478808E0,1.890500715E0,-3.408575892E-1,8.162736236E0
8.925755000E-1,7.365527642E0,2.159600689E0,-2.784993732E-1,7.680653259E0
9.025635000E-1,5.692194271E0,2.588726091E0,6.041167796E-1,6.282319276E0
9.125505000E-1,4.426030592E0,2.598014393E0,1.421142960E0,5.325323737E0
9.225385000E-1,4.267927144E0,2.230580624E0,1.277228950E0,4.982168786E0
9.325265000E-1,3.436488746E0,1.998521007E0,5.151163101E-2,3.975700512E0
9.425135000E-1,2.886356385E0,3.244346608E0,-1.724202393E0,4.672227733E0
9.525015000E-1,2.153198572E0,3.339312992E0,-2.290674798E0,4.586334744E0
9.624888333E-1,1.948632563E0,3.422469169E0,-2.190688580E0,4.506615197E0
9.724768333E-1,1.122070159E0,3.771038944E0,-2.137953127E0,4.477791836E0
9.824638333E-1,4.765667868E-1,4.621460327E0,-2.017421547E0,5.065076619E0
9.924518333E-1,7.584440964E-1,6.211783701E0,-2.651964313E0,6.796646888E0
1.002439833E0,1.770593033E0,6.739171563E0,-3.234182686E0,7.681885881E0
1.012426833E0,2.634658309E0,5.234722736E0,-3.249648571E0,6.701041887E0
1.022414833E0,1.523738791E0,2.118767243E0,-1.370708971E0,2.947846267E0
1.032401833E0,4.931231779E-1,-4.778689617E-1,8.493893498E-1,1.092241494E0
1.042389833E0,5.132411081E-1,-1.736334489E0,3.597394765E0,4.027346892E0
1.052376833E0,8.291252393E-1,-1.435658088E0,3.814401895E0,4.159113442E0
1.062364833E0,8.448010397E-1,1.507339105E-1,2.259248353E0,2.416735945E0
1.072351833E0,7.300950408E-1,1.637987245E0,-5.292221332E-1,1.869790643E0
1.082339833E0,1.045539461E0,2.198621498E0,-2.517323987E0,3.502000758E0
1.092327833E0,7.827720219E-1,2.081625729E0,-2.887146344E0,3.644380842E0
1.102314833E0,-2.362321901E-1,1.793158607E0,-2.688205648E0,3.240011273E0
1.112302833E0,-2.401106483E-1,1.843855137E0,-2.630726934E0,3.221518134E0
1.122289833E0,-1.944323750E0,4.973665023E-1,-1.817062610E0,2.707302128E0
1.132277833E0,-2.198029760E0,-2.661453760E-1,-1.867565596E0,2.896544396E0
1.142264833E0,-2.058159683E0,-2.061301392E-1,-1.818273568E0,2.754020640E0
1.152252833E0,-1.285784011E0,5.940648311E-1,-1.840730385E0,2.322593786E0
1.162240833E0,1.546003819E-2,2.067367879E0,-2.172431526E0,2.998951099E0
1.172227833E0,1.097037644E0,3.508491359E0,-2.486388415E0,4.437919621E0
1.182215833E0,2.049516329E0,4.785823805E0,-2.822606531E0,5.922139335E0
1.192202833E0,1.954887915E0,4.779264398E0,-2.660472012E0,5.808706076E0
1.202190833E0,2.614657323E0,5.735636744E0,-2.562654526E0,6.804495573E0
1.212177833E0,2.147692249E0,5.479111208E0,-1.020748436E0,5.972869411E0
1.222165833E0,2.264073476E0,4.997461436E0,1.049490717E0,5.585882229E0
1.232152833E0,3.524978753E0,4.916802020E0,4.166286163E0,7.345635283E0
1.242140833E0,5.754581138E0,5.221528494E0,6.686260693E0,1.025112901E1
1.252128833E0,3.062046504E0,2.190129002E0,7.169195098E0,8.097539885E0
1.262115833E0,-2.117766200E0,-1.696861982E0,4.504919179E0,5.259141667E0
1.272103833E0,-3.469175266E0,-1.875279243E0,2.274452868E0,4.552470221E0
1.282090833E0,-3.233733619E0,-1.340561897E-1,1.809993911E0,3.708245156E0
1.292078833E0,-2.823547348E0,1.220416525E0,8.227666846E-1,3.184145276E0
1.302065833E0,-1.410954772E0,2.211624536E0,-4.310429969E-1,2.658547446E0
1.312053833E0,-4.273642212E-1,1.710646209E0,-1.747887417E0,2.482752717E0
1.322041833E0,5.200338185E-2,9.033407316E-1,-3.060546693E0,3.191500414E0
1.332028833E0,-1.947233909E-1,-8.772022158E-2,-4.218649441E0,4.224051982E0
1.342016833E0,-8.075162691E-1,-1.505231184E-1,-4.913890691E0,4.982074012E0
1.352003833E0,-2.282994481E0,6.792575938E-1,-2.932278662E0,3.777792058E0
1.361991833E0,-1.833806112E0,4.728225222E-1,-4.305277111E-1,1.942101981E0
1.371978833E0,1.616521239E-2,-1.495722442E0,-1.690700479E-1,1.505334387E0
1.381966833E0,4.704242867E-1,-2.331269093E0,-8.766695344E-1,2.534692105E0
1.391953833E0,-2.237057000E-1,-9.645110857E-1,-1.470026852E0,1.772372653E0
1.401941833E0,-2.234320503E0,5.943799961E-1,2.252902955E-1,2.322978995E0
1.411929833E0,3.640784029E0,-1.511961329E-1,2.374075974E0,4.349069480E0
1.421916833E0,8.805353626E0,-1.552706482E0,2.452822766E0,9.271541912E0
1.431904833E0,5.803181441E0,-1.185301949E0,2.137171354E0,6.296773534E0
1.441891833E0,5.579899664E0,-7.365585530E-1,9.028812866E-1,5.700262571E0
1.451879833E0,3.569570205E0,-1.112988848E0,5.422916834E-1,3.778181559E0
1.461866833E0,1.470253140E0,-7.774066168E-1,9.002479930E-1,1.891150917E0
1.471854833E0,8.111310178E-1,-4.015663058E-1,2.278474291E-1,9.333292436E-1
1.481842833E0,1.350550110E0,-8.218495488E-2,-1.278753173E0,1.861706111E0
1.491829833E0,1.018127130E0,-3.029465818E-1,-8.375844061E-1,1.352740596E0
1.501817833E0,-4.271788645E-1,-1.248215066E0,1.274137527E-2,1.319350209E0
1.511804833E0,-2.965532362E-1,-1.330381309E0,-1.437543523E0,1.981007226E0
1.521792833E0,-4.022749883E-1,-1.270816308E-1,-7.662983689E-1,8.747503056E-1
1.531779833E0,-3.208125739E0,2.446218921E0,4.068111413E0,5.729361939E0
1.541767833E0,-1.935656422E-1,1.832401611E0,-1.164142630E-1,1.846270728E0
1.551754833E0,3.446343643E0,1.218365614E0,-2.357653192E0,4.349738826E0
1.561742833E0,2.569971732E0,1.628417984E0,9.950051925E-1,3.201020957E0
1.571730833E0,2.751588589E0,1.371736912E0,2.419872537E0,3.912631469E0
1.581717833E0,2.399033060E0,7.953207314E-1,2.569264219E0,3.604027374E0
1.591705833E0,-1.199756266E0,-1.158333421E-2,5.078333107E-1,1.302859909E0
1.601692833E0,-8.033279085E-1,-5.684604585E-2,8.088546968E-1,1.141408394E0
1.611680833E0,1.474433899E-2,1.724770743E-1,1.151694200E0,1.164630957E0
1.621667833E0,6.734495544E-1,2.325256401E-1,1.513237484E0,1.672569926E0
1.631655833E0,1.108926787E0,4.802458549E-1,1.764342652E0,2.138518107E0
1.641643833E0,1.515325232E0,4.749354136E-1,2.041843905E0,2.586677548E0
1.651630833E0,1.273167474E0,2.262083083E-1,1.802955617E0,2.218732650E0
1.661618833E0,1.251646796E0,1.841621500E-1,1.826823659E0,2.222120627E0
1.671605833E0,8.628437930E-1,-3.042651290E-1,1.988417603E0,2.188808179E0
1.681593833E0,1.021350700E-1,-8.322277719E-1,2.232657555E0,2.384909725E0
1.691580833E0,-3.589623231E-1,-1.199341698E0,2.421534900E0,2.726005453E0
1.701568833E0,-5.436770350E-1,-1.368990474E0,2.009681003E0,2.491693675E0
1.711555833E0,-9.324911481E-1,-1.380482007E0,1.413722844E0,2.184921644E0
1.721543833E0,-1.284422194E0,-1.153218861E0,6.511699086E-1,1.844905517E0
1.731531833E0,-1.098278423E0,-1.302048041E0,9.677054197E-1,1.959081003E0
1.741518833E0,-5.281351358E-1,-1.300625414E0,1.132704490E0,1.803766240E0
1.751506833E0,-1.244479864E0,-1.345558927E0,5.501273909E-1,1.913608922E0
1.761493833E0,-8.202824950E-1,-1.232932783E0,-1.076244360E-1,1.484779323E0
1.771481833E0,-7.396727800E-2,-8.526789933E-1,-3.481952602E-1,9.239981402E-1
1.781468833E0,-6.049763203E-2,-8.461996937E-1,-3.318826979E-1,9.109665253E-1
1.791456833E0,-6.232278192E-1,4.002933669E-1,-1.110707849E0,1.335035438E0
1.801444833E0,-9.440382296E-1,8.278914768E-1,-8.549646699E-1,1.519071118E0
1.811431833E0,-1.258057684E0,9.896044117E-1,-6.245212233E-1,1.718153889E0
1.821419833E0,-9.677802640E-1,9.200266385E-1,-3.917476612E-1,1.391586823E0
1.831406833E0,-9.155576116E-1,6.937943566E-1,-9.884191811E-2,1.152981385E0
1.841394833E0,-9.270970917E-1,7.413135087E-1,-2.256960922E-1,1.208301892E0
1.851381833E0,-1.025985788E0,8.582929051E-1,-4.730698594E-1,1.418840597E0
1.861369833E0,-7.672073185E-1,1.361904234E0,2.828751370E-1,1.588524018E0
1.871356833E0,-9.547976911E-2,1.810435376E0,1.294913269E0,2.227912253E0
1.881344833E0,8.262712133E-1,1.840190687E0,1.175089494E0,2.334493778E0
1.891332833E0,1.159307567E0,1.688110455E0,7.835950175E-1,2.192654121E0
1.901319833E0,8.636454463E-1,1.093421726E0,5.832553759E-1,1.510510298E0
1.911307833E0,4.501701164E-1,2.783274651E-4,5.333265862E-1,6.979186620E-1
1.921294833E0,3.410406071E-1,-7.964843273E-1,3.166933858E-1,9.224915609E-1
1.931282833E0,9.688076198E-2,-1.051708859E0,-3.573771429E-1,1.114986918E0
1.941269833E0,-4.054348236E-1,-1.606728323E0,-6.343720275E-1,1.774367822E0
1.951257833E0,-3.423386890E-1,-1.566764942E0,-1.861124011E0,2.456772425E0
1.961245833E0,1.691196030E-1,-2.167633009E-1,-2.924610624E0,2.937504905E0
1.971232833E0,-4.523201376E-1,7.714108819E-1,-2.988070455E0,3.119011590E0
1.981220833E0,-4.508384532E-1,9.232069391E-1,-2.829511216E0,3.010265783E0
1.991207833E0,-1.189423066E-1,1.154570737E0,-2.931582259E0,3.152991500E0
2.001195833E0,-3.595452905E-1,1.264547508E0,-2.384579912E0,2.722971644E0
2.011182833E0,-6.203065503E-1,8.591623861E-1,-1.030345472E0,1.478023008E0
2.021170833E0,-3.032950759E-3,5.776867801E-1,-3.224809599E-1,6.616080291E-1
2.031157833E0,-4.291973233E-2,7.107594681E-1,7.640568388E-1,1.044415615E0
2.041145833E0,-2.438055038E-2,7.602924013E-1,7.281563964E-1,1.053019793E0
2.051133833E0,-1.398022485E-1,8.358857900E-1,9.662401074E-1,1.285250819E0
2.061120833E0,2.281115770E-1,5.064296865E-1,6.797204009E-1,8.777959571E-1
2.071108833E0,7.913808775E-1,6.256111443E-2,3.028825548E-1,8.496678341E-1
2.081095833E0,1.532844075E0,7.301587754E-1,-3.477140343E-1,1.733103530E0
2.091083833E0,2.271673687E0,1.250763282E0,1.281057706E-1,2.596405441E0
2.101070833E0,2.925843801E0,1.068162923E0,1.422684286E0,3.424261170E0
2.111058833E0,3.426021060E0,7.127557075E-1,1.693667648E0,3.887692260E0
2.121046833E0,3.559463292E0,4.742729241E-1,7.107571292E-1,3.660585941E0
2.131033833E0,2.799012432E0,2.634603345E-1,6.816830188E-1,2.892848713E0
2.141021833E0,1.451916271E0,1.941059250E-1,3.545508912E-1,1.507131150E0
2.151008833E0,5.711092472E-2,5.073167092E-1,-5.364653715E-1,7.405585703E-1
2.160996833E0,-1.535241433E0,9.710593826E-1,-6.343501005E-1,1.924142051E0
2.170983833E0,-2.972511014E0,1.611413112E0,1.873290020E-1,3.386379498E0
2.180971833E0,-3.892758093E0,2.247093746E0,1.042902659E0,4.614178348E0
2.190958833E0,-4.468673167E0,2.871281093E0,1.913180310E0,5.645666824E0
2.200946833E0,-4.685317769E0,3.798717908E0,2.623337223E0,6.577564787E0
2.210934833E0,-4.752681202E0,4.263263989E0,2.012357128E0,6.694249745E0
2.220921833E0,-3.887148274E0,3.551038624E0,7.342743382E-1,5.315915332E0
2.230909833E0,-2.645667447E0,3.191360017E0,5.568415732E0,6.942016189E0
2.240896833E0,-2.469323024E0,3.577240582E0,6.848420940E0,8.111416384E0
2.250884833E0,-2.372280294E0,2.881246503E0,5.390905960E0,6.556764619E0
2.260871833E0,-1.536816089E0,-1.585293599E0,8.806275147E0,9.078845822E0
2.270859833E0,-1.181824025E0,2.050332016E-1,1.131068877E0,1.648655041E0
2.280847833E0,1.722098565E-1,-1.776729101E0,-2.026955871E0,2.700920701E0
2.290834833E0,6.624275529E-1,-3.524529687E0,-2.599798379E0,4.429454977E0
2.300822833E0,-5.944864154E-2,-3.561630270E0,-5.448657739E-1,3.603556998E0
2.310809833E0,-1.274381356E0,-3.268488300E0,3.090768027E-1,3.521731403E0
2.320797833E0,-1.925423210E0,-2.715871457E0,1.555593252E-2,3.329182226E0
2.330784833E0,-2.579101574E0,-2.313990571E0,-1.038095956E0,3.617175764E0
2.340772833E0,-1.494442486E0,-2.865720976E0,5.221914411E-2,3.232404971E0
2.350759833E0,-3.076167530E-1,-3.310958966E0,5.146696559E-1,3.364812357E0
2.360747833E0,6.010575163E-1,-3.269153713E0,8.112262543E-1,3.421509049E0
2.370735833E0,1.307084540E0,-3.026689560E0,1.621144048E0,3.673884554E0
2.380722833E0,1.562409644E0,-2.749338580E0,1.644828780E0,3.564470261E0
2.390710833E0,1.377160204E0,-2.033040630E0,6.748984945E-1,2.546627654E0
2.400697833E0,1.470986673E0,-8.186259788E-1,-1.836540270E-1,1.693422300E0
2.410685833E0,2.062777376E0,-2.572698873E-1,-2.387184262E-2,2.078895900E0
2.420672833E0,2.559399966E0,-2.865527433E-1,8.516750264E-1,2.712561706E0
2.430660833E0,3.077954439E0,-8.528380376E-1,6.712264431E-1,3.263691343E0
2.440647833E0,3.207382557E0,-1.027712470E0,1.757158470E-1,3.372591266E0
2.450635833E0,7.164156990E-1,-9.242459893E-2,-4.095740676E-1,8.303882689E-1
2.460623833E0,2.557769470E-2,-1.599885911E-1,1.083073908E0,1.095125407E0
2.470610833E0,-1.588308131E0,-1.628667660E0,2.914082127E0,3.696911645E0
2.480598833E0,-2.938505070E0,-1.782480422E0,1.886012977E0,3.920343537E0
2.490585833E0,-2.819030667E0,-2.030055041E0,1.126498840E0,3.651993566E0
2.500573833E0,-2.390465574E0,-1.952477108E0,1.476802021E0,3.421613176E0
2.510560833E0,-1.750030130E0,-4.860170567E-1,-7.536169276E-2,1.817827665E0
2.520548833E0,-1.670436661E0,1.307439759E0,-9.764541699E-1,2.335213075E0
2.530536833E0,-1.395743532E0,7.285209703E-1,-7.172940239E-2,1.576067232E0
2.540523833E0,-2.471195595E-1,4.576995760E-1,2.983261120E-1,5.996294253E-1
2.550511833E0,4.973787814E-1,1.808468957E0,3.147572266E-1,1.901845875E0
2.560498833E0,1.227586527E0,1.096205000E0,-3.338444388E-1,1.679311226E0
2.570486833E0,1.400263284E0,9.553356349E-1,-1.017320799E0,1.976953476E0
2.580473833E0,1.222431914E0,8.796767575E-1,-9.899979293E-1,1.802294893E0
2.590461833E0,9.242891125E-1,6.170017040E-1,-7.665274335E-1,1.350024360E0
2.600449833E0,5.795961884E-1,4.439527720E-1,-9.739445449E-1,1.217207370E0
2.610436833E0,2.226368290E-1,2.616798574E-1,-4.773826195E-1,5.881646630E-1
2.620424833E0,-5.203729570E-2,2.039397722E-1,-5.637382472E-1,6.017475568E-1
2.630411833E0,-1.743095917E-1,9.888694167E-2,-1.250448702E0,1.266406103E0
2.640399833E0,-1.574004672E-1,-1.506897640E-1,-1.278566793E0,1.297002450E0
2.650386833E0,-8.584063411E-2,-6.577819401E-1,-1.164667709E0,1.340334499E0
2.660374833E0,2.205527352E-1,-1.205774220E0,-1.195842724E0,1.712476219E0
2.670361833E0,8.307792704E-1,-1.266480013E0,-1.131302328E0,1.890505429E0
2.680349833E0,8.691856831E-1,-1.286080465E0,-1.181806776E0,1.950936690E0
2.690337833E0,2.049763520E0,-2.657366556E-1,-1.576447493E0,2.599487095E0
2.700324833E0,2.298411250E0,2.643005794E-1,-1.554597471E0,2.787350420E0
2.710312833E0,2.301750448E0,8.143762225E-1,-1.225805027E0,2.732006904E0
2.720299833E0,1.800479614E0,1.219437409E0,-5.744810441E-1,2.249173827E0
2.730287833E0,1.157513933E0,7.573799032E-1,-3.237527293E-1,1.420661344E0
2.740274833E0,1.147969085E0,8.877231109E-1,2.963240254E-1,1.481112173E0
2.750262833E0,1.145574650E0,7.474729657E-1,8.939664754E-1,1.634084812E0
2.760250833E0,1.438443263E0,1.261553149E0,-1.902276130E-1,1.922712125E0
2.770237833E0,1.716177236E0,2.512994124E0,-3.298660517E0,4.487935492E0
2.780225833E0,2.033246598E0,1.704790807E0,-3.665859228E0,4.525364881E0
2.790212833E0,2.128646260E0,-8.445133567E-3,-2.093977388E0,2.985958392E0
2.800200833E0,1.896413273E0,-1.154356729E0,-1.053733457E0,2.457494041E0
2.810187833E0,2.179132143E0,-2.023756421E0,-6.950167170E-1,3.054055531E0
2.820175833E0,1.889513851E0,-2.166039058E0,-1.118006490E0,3.084141097E0
2.830162833E0,1.894498748E0,-1.804893969E0,-2.107294714E0,3.359681348E0
2.840150833E0,3.235309444E0,-1.816301302E0,-1.535000090E0,4.015271211E0
2.850138833E0,3.719579645E0,-2.095528069E0,-1.625421432E0,4.568205934E0
2.860125833E0,4.003561660E0,-2.251938164E0,-2.148019840E0,5.070869816E0
2.870113833E0,4.678177149E0,-6.529959941E0,-4.654323725E-1,8.046262832E0
2.880100833E0,5.559653680E0,-1.004923064E1,-8.656937259E-1,1.151721369E1
2.890088833E0,5.487090318E0,-1.001589917E1,-7.510941464E-1,1.144510982E1
2.900075833E0,5.882797714E0,-8.214145160E0,-1.331311748E0,1.019077429E1
2.910063833E0,7.146096842E0,-6.488693216E0,-3.012076784E0,1.011150069E1
2.920051833E0,7.603017569E0,-6.559938031E0,-1.530266038E0,1.015777423E1
2.930038833E0,7.473466659E0,-5.008574654E0,-1.472350828E-1,8.997788736E0
2.940026833E0,5.029843317E0,-5.381919959E0,-2.888262869E-1,7.372096503E0
2.950013833E0,1.609124511E0,-8.057220510E0,-9.765131537E-1,8.274156270E0
2.960001833E0,5.801743318E-1,-5.568947244E0,-3.699789451E0,6.711051903E0
2.969988458E0,-1.278416081E0,-2.914171005E0,-5.152821956E0,6.056262415E0
2.979976458E0,-3.292541406E0,-3.228493345E-1,-2.038676761E0,3.886034423E0
2.989963458E0,-4.763889729E0,2.567139925E0,-4.221631229E-1,5.427989909E0
2.999951458E0,-6.894988165E0,4.741676742E0,3.326656401E-1,8.374665758E0
3.009939458E0,-8.019617651E0,5.987252374E0,6.917022228E-1,1.003194449E1
3.019926458E0,-9.124485301E0,4.625546361E0,6.725900868E-1,1.025203826E1
3.029914458E0,-9.044196013E0,1.844954413E0,1.341733679E0,9.327464156E0
3.039901458E0,-6.316197431E0,1.098007697E0,2.235125227E0,6.789385515E0
3.049889458E0,-3.864061128E0,1.322437867E0,3.012803593E0,5.075115348E0
3.059876458E0,-2.435537227E0,6.260227883E-1,3.635238529E0,4.420260771E0
3.069864458E0,-1.417630976E0,-1.044470590E-1,3.833779567E0,4.088820434E0
3.079852458E0,-1.224670082E-1,-7.577786833E-1,3.771609632E0,3.848930490E0
3.089839458E0,1.507829102E0,-1.489823186E0,1.935913700E0,2.870693919E0
3.099827458E0,1.786288568E0,-1.899051098E0,-1.431570885E-1,2.611075616E0
3.109814458E0,3.619059868E0,-2.098209018E0,1.778879707E0,4.545820985E0
3.119802458E0,4.131347880E0,-3.321174636E0,1.662066079E0,5.555240762E0
3.129789458E0,3.539003300E0,-4.358695811E0,1.421557528E0,5.791683636E0
3.139777458E0,3.636331082E0,-4.212183298E0,1.622930080E0,5.796489793E0
3.149765458E0,2.390173359E0,-3.976571497E0,2.546538430E0,5.292533187E0
3.159752458E0,-1.733678976E-1,-3.753021918E0,3.116272705E0,4.881227870E0
3.169740458E0,-1.424095950E-1,-1.618943741E0,2.453559223E0,2.942993746E0
3.179727458E0,-2.485829348E-1,1.598722315E-1,3.122178100E0,3.136135950E0
3.189715458E0,-1.118616501E0,1.299762365E0,2.909708995E0,3.377438603E0
3.199702458E0,-2.073803032E0,1.792297313E0,2.420111103E0,3.656490999E0
3.209690458E0,-2.363743213E0,2.225510504E0,2.446832002E0,4.065361709E0
3.219677458E0,-2.568433329E0,2.448243227E0,2.855535126E0,4.554648782E0
3.229665458E0,-2.761331220E0,2.573359024E0,2.954891599E0,4.793590631E0
3.239653458E0,-2.647107324E0,2.810408655E0,2.803471518E0,4.771270957E0
3.249640458E0,-2.584196838E0,2.821392065E0,2.462573875E0,4.550010612E0
3.259628458E0,-2.404129201E0,2.754853089E0,2.281879417E0,4.309991465E0
3.269615458E0,-2.263769128E0,3.088377686E0,2.429601134E0,4.534940911E0
3.279603458E0,-2.282382716E0,3.204830832E0,2.183432770E0,4.499732235E0
3.289590458E0,-2.164139736E0,3.089679860E0,1.749862314E0,4.158321844E0
3.299578458E0,-2.543845495E0,3.528779444E0,2.577056803E0,5.056150317E0
3.309566458E0,-2.639108040E0,4.054969211E0,2.154697214E0,5.296261571E0
3.319553458E0,-2.515129234E0,4.442263048E0,2.150953826E0,5.539510666E0
3.329541458E0,-2.196484925E0,4.802225829E0,2.197250326E0,5.719600330E0
3.339528458E0,-1.888385631E0,5.064964617E0,2.117535819E0,5.805499532E0
3.349516458E0,-1.704483389E0,5.153354638E0,1.883669120E0,5.745479702E0
3.359503458E0,-1.670331703E0,5.029786014E0,1.379556685E0,5.476489021E0
3.369491458E0,-1.727941688E0,4.620224226E0,6.445505682E-1,4.974706002E0
3.379478458E0,-1.638344071E0,3.869824728E0,-2.135379767E-1,4.207768196E0
3.389466458E0,-1.296901468E0,2.819161352E0,-1.154650552E0,3.311018279E0
3.399454458E0,-7.037724839E-1,1.509938192E0,-2.080125918E0,2.664982719E0
3.409441458E0,-5.742402850E-1,1.528760964E0,-2.158583858E0,2.706722421E0
3.419429458E0,1.029419492E0,-1.738031058E0,-3.164075739E0,3.753908861E0
3.429416458E0,2.066900247E0,-3.586097944E0,-3.822819254E0,5.634369721E0
3.439404458E0,2.154237038E0,-3.581041857E0,-3.866043042E0,5.693056016E0
3.449391458E0,3.624841888E0,-8.159275473E0,-4.656288975E0,1.006947277E1
3.459379458E0,3.869520088E0,-1.002060969E1,-4.297751452E0,1.156963577E1
3.469367458E0,4.120022993E0,-1.021906653E1,-3.893031450E0,1.168587199E1
3.479354458E0,4.206864671E0,-8.379597389E0,-3.944710312E0,1.017232039E1
3.489342458E0,3.436925240E0,-5.684443202E0,-3.863434014E0,7.684495560E0
3.499329458E0,2.301129182E0,-3.143773622E0,-3.540624441E0,5.264459091E0
3.509317458E0,1.410811807E0,-9.990961969E-1,-2.904141861E0,3.379737137E0
3.519304458E0,6.556838860E-1,6.720240033E-1,-1.633492783E0,1.884100924E0
3.529292458E0,-1.208468910E-1,1.858615848E0,-3.635275367E-1,1.897685198E0
3.539280458E0,-8.395736289E-1,2.454120848E0,4.714150974E-1,2.636252114E0
3.549267458E0,-1.364862632E0,2.404911266E0,1.631031982E0,3.210407066E0
3.559255458E0,-1.970625696E0,1.566169696E0,2.542993556E0,3.578137696E0
3.569242458E0,-2.710979676E0,5.693784714E-2,1.629556145E0,3.163559064E0
3.579230458E0,-2.866069178E0,-1.817352632E0,-4.094541997E-1,3.418300142E0
3.589217458E0,-2.137026343E0,-3.261315520E0,-1.157530890E0,4.067301105E0
3.599205458E0,-1.032666378E0,-3.333790589E0,-1.416712817E0,3.766647680E0
3.609192458E0,3.706498839E-2,-1.941365644E0,-1.489967612E0,2.447504415E0
3.619180458E0,1.128069475E0,3.445278865E-1,1.485934203E0,1.897166482E0
3.629168458E0,-1.811963545E0,2.551254210E0,-1.345482036E0,3.406234261E0
3.639155458E0,-3.331477138E0,3.947336004E0,4.969016486E0,7.167379318E0
3.649143458E0,-4.332929471E0,6.186516128E0,-5.073317950E0,9.098671036E0
3.659130458E0,1.779911740E0,5.828168932E0,7.640349702E0,9.772951574E0
3.669118458E0,-1.736753880E-1,2.185576944E0,2.159142998E0,3.077142864E0
3.679105458E0,-1.319936720E0,-2.274145889E-1,-1.134112938E0,1.755039173E0
3.689093458E0,-1.779949455E0,-6.953941548E-1,2.676599218E0,3.288765188E0
3.699081458E0,-1.667035628E0,-5.183404648E-1,3.859093041E0,4.235597210E0
3.709068458E0,-8.729557485E-1,-2.235378850E-1,4.231344331E0,4.326233440E0
3.719056458E0,-6.077313821E-1,4.167643887E-1,3.236957482E0,3.319777662E0
3.729043458E0,-1.552139156E0,1.481535927E0,1.796393287E0,2.798412676E0
3.739031458E0,-2.126565382E0,1.890049894E0,1.337468427E0,3.143786049E0
3.749018458E0,-2.145334944E0,1.912316092E0,1.238950591E0,3.129602758E0
3.759006458E0,-2.345072908E0,2.020815271E0,1.132535505E0,3.296315818E0
3.768993458E0,4.431006134E-1,1.974903519E0,1.400421013E0,2.461251932E0
3.778981458E0,9.848562533E-1,1.252543759E0,2.153834749E0,2.679143863E0
3.788969458E0,-3.870261077E-1,5.924591857E-1,1.988943268E0,2.111087970E0
3.798956458E0,-3.937623742E-2,-5.994875389E-1,1.366081631E0,1.492352110E0
3.808944458E0,5.181492243E-1,-1.334474360E0,9.949411654E-1,1.743332544E0
3.818931458E0,4.053369193E-1,-1.030951828E0,5.065090625E-1,1.218076812E0
3.828919458E0,1.433560107E0,-8.720508188E-1,5.832838811E-2,1.678978681E0
3.838906458E0,1.420939477E0,-4.405993938E-1,7.089667848E-1,1.647977768E0
3.848894458E0,9.492805508E-1,-8.361641175E-1,1.377236803E0,1.870049520E0
3.858882458E0,1.068604827E0,-1.054478685E0,1.424934880E0,2.069850474E0
3.868869458E0,8.406761214E-1,-9.881203884E-1,1.772928411E0,2.196905413E0
3.878857458E0,-4.817985830E-1,-9.674879032E-1,2.297489144E0,2.539019315E0
3.888844458E0,-1.527679960E0,-8.453752363E-1,2.121251725E0,2.747394080E0
3.898832458E0,-2.432240713E0,-3.373235321E-1,2.066477348E0,3.209347392E0
3.908819458E0,-2.505265859E0,1.151581641E0,1.215072463E0,3.013121038E0
3.918807458E0,-1.393883826E0,2.462475350E0,-1.030680517E0,3.011477926E0
3.928795458E0,5.001377901E-1,3.159390950E0,1.294690490E-1,3.201351468E0
3.938782458E0,2.237999864E0,2.443912194E0,1.741319532E0,3.743466832E0
3.948770458E0,2.785616168E0,1.628517972E0,1.739193485E0,3.665586201E0
3.958757458E0,2.773726732E0,1.283513537E0,1.266701038E0,3.308398178E0
3.968745583E0,2.758598231E0,1.154370178E0,1.078769188E0,3.179021496E0
3.978732583E0,2.638075422E0,1.264957398E0,1.238178320E0,3.176892303E0
3.988720583E0,2.258541717E0,1.289885833E0,9.034024197E-1,2.753352880E0
3.998707583E0,1.650000203E0,8.988258040E-1,3.668975794E-1,1.914419581E0
4.008695583E0,9.408766401E-1,3.770489305E-1,-1.705005984E0,1.983547366E0
4.018683583E0,8.036952598E-1,-2.615459561E-2,-6.179304757E0,6.231405733E0
4.028670583E0,8.258338416E-1,-7.810009003E-1,-8.916187014E0,8.988345499E0
4.038658583E0,1.241780497E0,-1.396760071E0,-5.756566268E0,6.052355963E0
4.048645583E0,1.206541229E0,-1.081927269E0,-1.650359661E0,2.313005699E0
4.058633583E0,5.200835198E-1,-5.180679846E-1,-7.433034624E-1,1.044691984E0
4.068620583E0,-1.746120389E-1,-4.135753173E-1,-1.606824217E0,1.668357867E0
4.078608583E0,-6.548657875E-1,-6.721690142E-1,-2.104744304E0,2.304475856E0
4.088596583E0,1.509252606E-1,-5.382087189E-1,-2.402043061E0,2.466223413E0
4.098583583E0,1.357913070E0,4.627895772E-2,-2.843091082E0,3.151069112E0
4.108571583E0,2.208867281E0,4.850072426E-1,-2.265524901E0,3.201082593E0
4.118558583E0,2.665275500E0,5.296004480E-1,-1.008723784E0,2.898567542E0
4.128546583E0,2.896038204E0,4.305649871E-1,2.331809668E-1,2.937140932E0
4.138533583E0,3.241164261E0,-2.439078301E-1,4.446396737E-1,3.280600743E0
4.148521583E0,2.795092458E0,-4.305246413E-1,-6.441336617E-2,2.828788150E0
4.158508583E0,2.775093811E0,-4.849505246E-1,-6.357512395E-1,2.887992782E0
4.168496583E0,2.928522996E0,-7.337314242E-1,-1.159249679E0,3.233955559E0
4.178484583E0,2.859908259E0,-9.358041805E-1,-1.782068778E0,3.497223734E0
4.188471583E0,2.923095903E0,-9.663611448E-1,-2.470913467E0,3.947626740E0
4.198459583E0,3.321589204E0,-9.277309299E-1,-2.243376817E0,4.114168089E0
4.208446583E0,4.285036389E0,-4.542666757E-1,-2.420199981E0,4.942192126E0
4.218434583E0,4.842424852E0,-3.106912190E-1,-3.562701480E0,6.019837981E0
4.228421583E0,4.830180490E0,-1.082611978E0,-3.805800056E0,6.243941570E0
4.238409583E0,4.490830313E0,-2.426769912E0,-2.612730666E0,5.734381452E0
4.248397583E0,4.016902667E0,-4.231229433E0,-1.189027210E0,5.954208198E0
4.258384583E0,4.535458894E0,-4.899929879E0,-9.828385985E-1,6.748753360E0
4.268372583E0,5.555951807E0,-5.165349031E0,-2.461043367E0,7.975347363E0
4.278359583E0,6.435128043E0,-4.938002270E0,-2.747993136E0,8.564239933E0
4.288347583E0,6.220394311E0,-4.663905265E0,-2.551162993E0,8.182527136E0
4.298334583E0,5.277647731E0,-4.020480579E0,-1.988369071E0,6.926141871E0
4.308322583E0,3.527851198E0,-3.283280001E0,-1.575887768E0,5.070412597E0
4.318309583E0,1.266917385E0,-3.068379623E0,-1.075499425E0,3.489517472E0
4.328297583E0,-9.694695246E-1,-3.311095206E0,-2.122621143E-1,3.456628101E0
4.338285583E0,-2.544513540E0,-3.842790712E0,4.026078410E-1,4.626411426E0
4.348272583E0,-3.656337622E0,-4.245759764E0,1.270009539E0,5.745276757E0
4.358260583E0,-4.177435342E0,-4.160823110E0,2.445739595E0,6.383185502E0
4.368247583E0,-3.532187493E0,-3.949083152E0,3.388530760E0,6.289176968E0
4.378235583E0,-2.161952731E0,-3.024189876E0,3.892178926E0,5.382269114E0
4.388222583E0,-1.393453324E0,-2.047777367E0,3.715534541E0,4.465456443E0
4.398210583E0,-1.642761789E0,-1.418646784E0,3.341843667E0,3.984864375E0
4.408198583E0,-1.985775539E0,-8.002019870E-1,2.999957260E0,3.685562545E0
4.418185583E0,-1.867251747E0,3.196088076E-3,2.884290856E0,3.435953003E0
4.428173583E0,-1.388249887E0,5.619987005E-1,3.011616316E0,3.363467425E0
4.438160583E0,-9.818781933E-1,8.491618931E-1,3.325082623E0,3.569500687E0
4.448148583E0,-7.106223509E-1,8.179248977E-1,3.528630340E0,3.691235205E0
4.458135583E0,-8.158329101E-1,7.434348786E-1,3.654104278E0,3.817166074E0
4.468123583E0,-3.990119496E-1,2.226660651E-1,3.191677521E0,3.224220233E0
4.478111583E0,-4.935883239E-1,-3.710233748E-2,3.053654872E0,3.093511613E0
4.488098583E0,-5.150955525E-1,-3.500728011E-2,3.025973861E0,3.069701410E0
4.498086583E0,-5.568905729E-1,1.078577399E-2,3.525220243E0,3.568952396E0
4.508073583E0,-1.012369376E0,2.804178447E-1,4.080611005E0,4.213657805E0
4.518061583E0,-1.994967654E0,7.085837191E-1,4.429687149E0,4.909594185E0
4.528048583E0,-3.205562904E0,1.385533417E0,4.506304677E0,5.701062903E0
4.538036583E0,-4.193506706E0,2.629962995E0,4.170754021E0,6.472819552E0
4.548024583E0,-5.958869405E0,2.176064694E0,3.332803287E0,7.165958406E0
4.558011583E0,-5.996713754E0,1.241048718E0,1.377903970E0,6.276893907E0
4.567999583E0,-4.520678010E0,1.715619265E0,1.753776733E0,5.143501917E0
4.577986583E0,-3.851705377E0,1.930102152E0,1.735696265E0,4.644735746E0
4.587974583E0,-3.489464520E0,1.883730808E0,1.410986054E0,4.209000598E0
4.597961583E0,-3.514593514E0,1.910355520E0,1.343622037E0,4.219851414E0
4.607949583E0,-3.466968527E0,1.854842055E0,1.729993768E0,4.295717432E0
4.617937583E0,-3.592062689E0,1.967105672E0,2.310437803E0,4.702184803E0
4.627924583E0,-3.557138439E0,2.347310929E0,2.597978725E0,4.991251941E0
4.637912583E0,-3.496292606E0,2.764077657E0,2.576429982E0,5.148026683E0
4.647899583E0,-3.548967248E0,3.092643814E0,2.465930177E0,5.314172177E0
4.657887583E0,-3.561155769E0,3.416735097E0,2.329414356E0,5.457296068E0
4.667874583E0,-3.509304122E0,3.707616534E0,2.078037293E0,5.511794152E0
4.677862583E0,-3.447682655E0,3.899359599E0,1.164737584E0,5.333679276E0
4.687849583E0,-3.111982310E0,3.962828786E0,-4.385148615E-2,5.038885675E0
4.697837583E0,-2.413398207E0,3.948917676E0,-1.117998742E0,4.761130423E0
4.707825583E0,-1.574104075E0,3.729916061E0,-1.956772180E0,4.496558108E0
4.717812583E0,-5.151081240E-1,3.208156144E0,-2.496731848E0,4.097715478E0
4.727800583E0,7.561454098E-1,2.429190660E0,-2.959103056E0,3.902436936E0
4.737787583E0,2.260696562E0,1.291562229E0,-3.484298505E0,4.349622743E0
4.747775583E0,3.888533187E0,-4.826923299E-1,-4.144048617E0,5.703229013E0
4.757762583E0,5.655681918E0,-2.683491331E0,-4.643261670E0,7.794083821E0
4.767750583E0,7.437282334E0,-5.276073076E0,-4.401686295E0,1.012546087E1
4.777738583E0,8.783876803E0,-7.865261098E0,-3.652819937E0,1.234349696E1
4.787725583E0,9.370327975E0,-9.626835385E0,-3.354788817E0,1.384679074E1
4.797713583E0,8.704093300E0,-9.872993224E0,-3.981719971E0,1.375104830E1
4.807700583E0,6.406654442E0,-7.756991129E0,-4.017410206E0,1.083308438E1
4.817688583E0,3.859895864E0,-4.311790617E0,-2.806973123E0,6.431907378E0
4.827675583E0,1.527464052E0,-1.832372959E0,-1.534424870E0,2.836405608E0
4.837663583E0,-8.155655462E-1,-5.919960862E-1,-8.248810378E-1,1.302319182E0
4.847651583E0,-3.013419597E0,1.277166384E-1,-1.192050805E0,3.243145746E0
4.857638583E0,-4.462661644E0,4.816491866E-1,-1.733493619E0,4.811687336E0
4.867626583E0,-5.026054906E0,3.743112642E-1,-1.813399037E0,5.356281630E0
4.877613583E0,-4.383086009E0,-3.489138830E-1,-3.065270951E0,5.359950547E0
4.887601583E0,-2.186597576E0,-1.743910434E0,-4.662324763E0,5.436883736E0
4.897588583E0,3.374878389E-1,-3.075346581E0,-1.049019724E0,3.266817567E0
4.907576583E0,3.112402725E-1,-3.368848740E0,5.979491365E0,6.870249582E0
4.917564583E0,-1.302710238E0,-1.037013636E0,7.956178869E0,8.128544362E0
4.927551583E0,-2.780062190E0,1.770093681E0,5.510830014E0,6.421154480E0
4.937539583E0,-4.707361772E0,3.347583586E0,1.665626741E0,6.011645628E0
4.947526583E0,-6.003971903E0,4.037787167E0,-1.578885636E-1,7.237149481E0
4.957514583E0,-6.273021591E0,3.568121265E0,1.473741296E0,7.365745220E0
4.967501250E0,-5.684388238E0,2.484573147E0,3.448318248E0,7.097624399E0
4.977489250E0,-4.395360192E0,1.371112429E0,4.249596123E0,6.265637056E0
4.987477250E0,-1.457272029E0,-9.473009759E-1,3.386713153E0,3.806684500E0
4.997464250E0,-1.610568774E-1,-1.854643834E0,2.682702541E0,3.265353885E0
5.007452250E0,7.138371500E-1,-2.237264577E0,1.947889675E0,3.051096597E0
5.017439250E0,7.636449024E-1,-2.212839003E0,1.713585896E0,2.901066461E0
5.027427250E0,2.994476080E-1,-2.076118822E0,1.925084364E0,2.847084129E0
5.037414250E0,-2.574216226E-1,-1.787875063E0,2.244629145E0,2.881166974E0
5.047402250E0,-7.375297755E-1,-1.347026578E0,2.611399255E0,3.029494486E0
5.057390250E0,-1.210327447E0,-8.211081219E-1,2.786029859E0,3.146597122E0
5.067377250E0,-1.454123449E0,-2.684123415E-1,2.746876903E0,3.119591786E0
5.077365250E0,-1.499723545E0,2.190191567E-2,2.467404553E0,2.887513746E0
5.087352250E0,-1.281373602E0,9.687725365E-2,2.012568358E0,2.387830586E0
5.097340250E0,-9.940658373E-1,-1.242352062E-1,1.416942905E0,1.735317974E0
5.107327250E0,-9.394421719E-1,-9.905943453E-2,1.299982220E0,1.606959283E0
5.117315250E0,-6.010829517E-1,-9.322777247E-1,5.408827237E-1,1.234097481E0
5.127303250E0,-2.672832441E-1,-1.052254989E0,3.104182271E-1,1.129176855E0
5.137290250E0,-4.904556781E-2,-9.865264374E-1,3.807286564E-1,1.058581215E0
5.147278250E0,2.915711161E-1,-7.176574284E-1,7.515683556E-1,1.079305746E0
5.157265250E0,8.368701687E-1,-2.032498008E-1,1.031308508E0,1.343599419E0
5.167253250E0,1.357224561E0,4.623884583E-1,1.067284087E0,1.787444242E0
5.177240250E0,1.629316994E0,1.179583372E0,9.957223535E-1,2.244449554E0
5.187228250E0,1.718997202E0,1.654547437E0,9.715792000E-1,2.576129799E0
5.197216250E0,1.708132637E0,1.801227180E0,8.736652350E-1,2.631620680E0
5.207203250E0,1.454866776E0,1.558805712E0,7.349669409E-1,2.255368926E0
5.217191250E0,1.171483809E0,1.257201651E0,7.837654638E-1,1.888708185E0
5.227178250E0,1.193725886E0,1.054793265E0,8.337667590E-1,1.797981460E0
5.237166250E0,1.069293190E0,9.574242604E-1,5.684347308E-1,1.543751011E0
5.247153250E0,9.012933290E-1,9.032287574E-1,1.863274105E-1,1.289523073E0
5.257141250E0,6.339073201E-1,9.890044874E-1,-5.714483857E-3,1.174734447E0
5.267129250E0,3.214997971E-1,1.142920160E0,-4.335482730E-1,1.263959144E0
5.277116250E0,1.139291232E-1,1.250589620E0,-8.838798822E-1,1.535642500E0
5.287104250E0,-7.478625365E-2,1.227787818E0,-1.314776845E0,1.800470511E0
5.297091250E0,-1.628898333E-1,1.158982462E0,-1.880193828E0,2.214701396E0
5.307079250E0,-1.707362851E-1,1.028063303E0,-2.811737142E0,2.998654830E0
5.317066250E0,-8.922975339E-2,1.027775036E0,-2.896270339E0,3.074518718E0
5.327054250E0,7.783089884E-2,4.235506672E-1,-3.553756410E0,3.579753824E0
5.337042250E0,7.870156386E-1,-2.335144043E-2,-2.004935257E0,2.153997282E0
5.347029250E0,1.696610552E0,-3.791089046E-1,-3.908973299E-1,1.781856237E0
5.357017250E0,2.448020740E0,-6.313121796E-1,2.684513716E-1,2.542327035E0
5.367004250E0,3.171383005E0,-6.583508742E-1,-1.675521107E-1,3.243326956E0
5.376992250E0,3.786972606E0,-4.006155485E-1,-9.036544347E-1,3.913853047E0
5.386979250E0,4.059742293E0,-2.549035192E-2,-1.263368710E0,4.251853447E0
5.396967250E0,4.065354158E0,3.434028822E-1,-1.023295630E0,4.206205406E0
5.406955250E0,3.941675022E0,6.699985278E-1,-4.480097164E-1,4.023234111E0
5.416942250E0,3.809863871E0,8.233131069E-1,-2.472933680E-3,3.897808782E0
5.426930250E0,3.619022446E0,8.152696770E-1,4.660800979E-2,3.710008143E0
5.436917250E0,3.436052251E0,8.077560049E-1,6.909406230E-2,3.530396412E0
5.446905250E0,3.447630323E0,8.048113471E-1,4.870423660E-2,3.540656472E0
5.456892250E0,3.363193313E0,7.621769589E-1,2.316203450E-1,3.456245211E0
5.466880250E0,3.375399668E0,4.493275326E-1,2.530477591E-1,3.414564587E0
5.476868250E0,3.388180512E0,-4.820210695E-2,-3.253376171E-2,3.388679547E0
5.486855250E0,3.255235293E0,-6.965068799E-1,-6.498724115E-1,3.391756595E0
5.496843250E0,2.972107849E0,-1.509249390E0,-1.490268159E0,3.651322770E0
5.506830250E0,2.542198627E0,-2.321068041E0,-2.155522841E0,4.061577209E0
5.516818250E0,2.090177282E0,-2.938869059E0,-2.248909891E0,4.250104483E0
5.526805250E0,1.731994393E0,-3.497626648E0,-2.149970178E0,4.455958765E0
5.536793250E0,1.674604995E0,-3.932086465E0,-2.099119283E0,4.761502664E0
5.546781250E0,2.040791406E0,-4.200469571E0,-2.060016613E0,5.104159346E0
5.556768250E0,2.616530479E0,-4.151800856E0,-2.155353856E0,5.359965703E0
5.566756250E0,3.096705290E0,-3.743150064E0,-2.218664584E0,5.340714239E0
5.576743250E0,3.291546795E0,-3.153789318E0,-2.645716563E0,5.270719448E0
5.586731250E0,3.183238819E0,-2.484237517E0,-3.450307471E0,5.311220864E0
5.596718250E0,2.962794404E0,-2.146139814E0,-3.673545393E0,5.184496363E0
5.606706250E0,2.449036840E0,-2.045948943E0,-2.946509031E0,4.343455306E0
5.616694250E0,1.647504612E0,-1.967736002E0,-2.673506041E0,3.705926465E0
5.626681250E0,4.038587067E-1,-2.111987396E0,-2.679736834E0,3.435779695E0
5.636669250E0,-1.390957733E0,-2.374778225E0,-2.139672793E0,3.486048579E0
5.646656250E0,-3.128131151E0,-2.639300998E0,-1.199627481E0,4.264999455E0
5.656644250E0,-4.343608825E0,-2.923985556E0,-2.393440052E-1,5.241556516E0
5.666632250E0,-5.136482497E0,-3.055575390E0,4.992317641E-1,5.997434932E0
5.676619250E0,-4.609257773E0,-2.604854466E0,1.124897726E0,5.412570452E0
5.686607250E0,-3.847262077E0,-2.260205542E0,1.854783144E0,4.832201889E0
5.696594250E0,-3.559520887E0,-2.025198929E0,3.024232560E0,5.090933336E0
5.706582250E0,-2.925677741E0,-1.410696909E0,7.453913569E0,8.130835351E0
5.716569250E0,-2.045717978E0,-2.002895894E0,8.696470284E-1,2.992129670E0
5.726557250E0,-9.306627238E-1,-2.371944664E0,-1.537795497E0,2.976082927E0
5.736545250E0,3.881951854E-1,-2.315537159E0,7.930903110E-1,2.478184836E0
5.746532250E0,1.719732197E0,-2.025510585E0,1.294746623E0,2.955763992E0
5.756520250E0,2.650095836E0,-1.855903909E0,2.166959702E0,3.893982744E0
5.766507250E0,2.792497464E0,-1.656347795E0,2.696047934E0,4.220213806E0
5.776495250E0,2.431141291E0,-1.381474864E0,2.574366499E0,3.800826706E0
5.786482250E0,1.563852444E0,-1.074155150E0,2.478664244E0,3.121413171E0
5.796470250E0,6.272901723E-1,-7.784328032E-1,2.861308082E0,3.030929648E0
5.806458250E0,-4.915485227E-1,-5.060811925E-1,3.042659768E0,3.123382235E0
5.816445250E0,-1.674872943E0,-2.481265962E-1,3.186690723E0,3.608568130E0
5.826433250E0,-2.812998679E0,1.373300457E-1,3.370593549E0,4.392348117E0
5.836420250E0,-4.456971719E0,7.563192183E-1,3.064545896E0,5.461506863E0
5.846408250E0,-4.675179867E0,1.043964806E0,2.924097823E0,5.612264906E0
5.856396250E0,-4.616073872E0,1.521436742E0,3.046729723E0,5.736328944E0
5.866383250E0,-4.502256357E0,2.095471936E0,3.168601777E0,5.890785360E0
5.876371250E0,-4.496199227E0,2.690506235E0,3.156792448E0,6.117186432E0
5.886358250E0,-4.611153732E0,3.258584286E0,3.112986862E0,6.447619522E0
5.896346250E0,-4.610480133E0,3.801975977E0,3.022776019E0,6.696918937E0
5.906333250E0,-4.430375074E0,4.213566164E0,2.620593124E0,6.652057684E0
5.916321250E0,-4.212630610E0,4.343307109E0,2.457034516E0,6.530512377E0
5.926309250E0,-3.914827824E0,4.401979240E0,2.390094422E0,6.357346102E0
5.936296250E0,-3.439690389E0,4.395130981E0,2.381095557E0,6.067805399E0
5.946284250E0,-2.925083371E0,4.307588223E0,2.259008033E0,5.675785965E0
5.956271250E0,-2.480102659E0,4.111431679E0,1.984493829E0,5.195478362E0
5.966259208E0,-2.116669262E0,3.914151886E0,1.479510744E0,4.689331060E0
5.976246208E0,-1.705923412E0,3.721399591E0,8.188923195E-1,4.174874158E0
5.986234208E0,-1.205561674E0,3.421447368E0,-2.301236039E-1,3.634919245E0
5.996222208E0,-5.002711067E-1,2.784416027E0,-2.079379814E0,3.510991911E0
6.006209208E0,8.473051098E-1,1.889261105E0,-5.068777002E0,5.475375217E0
6.016197208E0,3.104128330E0,7.527471542E-1,-8.421314349E0,9.006707297E0
6.026184208E0,5.998172050E0,-1.092365718E0,-9.975933455E0,1.169147463E1
6.036172208E0,8.663748681E0,-4.097204234E0,-9.385506177E0,1.341399828E1
6.046160208E0,1.100554978E1,-7.708398428E0,-8.587797443E0,1.594652931E1
6.056147208E0,1.286858963E1,-1.060292688E1,-6.812938281E0,1.801218436E1
6.066135208E0,1.202647129E1,-1.151356991E1,-3.975902868E0,1.711742117E1
6.076122208E0,8.098453320E0,-9.197980124E0,-1.390204757E0,1.233371209E1
6.086110208E0,4.360261695E0,-4.366804730E0,3.846962115E-1,6.182948874E0
6.096097208E0,1.366576451E0,-4.624954623E-1,1.419711854E0,2.024108445E0
6.106085208E0,-1.410769269E0,2.405319402E0,1.842308256E0,3.342144680E0
6.116073208E0,-3.686008149E0,4.581479990E0,1.470740798E0,6.061327698E0
6.126060208E0,-5.140707695E0,6.006441767E0,9.179207638E-1,7.959070098E0
6.136048208E0,-5.924673718E0,6.394167128E0,2.195670700E0,8.989332665E0
6.146035208E0,-6.400614853E0,5.922321968E0,3.195455699E0,9.287233448E0
6.156023208E0,-6.621571777E0,4.706687003E0,2.032814050E0,8.374392414E0
6.166011208E0,-6.438111877E0,2.891330026E0,-4.501341560E-1,7.071894698E0
6.175998208E0,-5.800199361E0,5.954354185E-1,-3.775726949E0,6.946435773E0
6.185986208E0,-4.018962349E0,-2.271074932E0,-5.164929786E0,6.927217291E0
6.195973208E0,-9.487959628E-1,-5.100205786E0,-2.378154115E0,5.706831856E0
6.205961208E0,2.762251571E0,-6.777325814E0,1.842585998E0,7.547006168E0
6.215948208E0,5.312571396E0,-7.767518456E0,4.890113281E0,1.060523294E1
6.225936208E0,4.752805163E0,-8.004552884E0,5.507145098E0,1.081622258E1
6.235924208E0,1.922887711E0,-6.349606082E0,6.351956663E0,9.184897822E0
6.245911208E0,-7.455743748E-1,-3.273732668E0,6.458136252E0,7.278786340E0
6.255899208E0,-2.941583921E0,-6.129577696E-1,5.261400658E0,6.058957837E0
6.265886208E0,-4.746388721E0,1.250756850E0,3.976498699E0,6.317051566E0
6.275874208E0,-5.747860934E0,2.523372931E0,3.472054727E0,7.173596050E0
6.285862208E0,-5.620716738E0,3.483410313E0,4.657544664E0,8.088221458E0
6.295849208E0,-5.597785127E0,3.536311827E0,4.498880175E0,8.005037320E0
6.305837208E0,-4.916780385E0,3.625915729E0,5.108317044E0,7.963472688E0
6.315824208E0,-4.015043837E0,2.902212279E0,4.322799462E0,6.574953104E0
6.325812208E0,-2.664774393E0,1.709730535E0,3.333843214E0,4.597685466E0
6.335799208E0,-1.216186211E0,3.215436512E-1,2.438685076E0,2.744026989E0
6.345787208E0,3.577139425E-1,-1.162711231E0,1.525406124E0,1.951081883E0
6.355775208E0,1.840811953E0,-2.340932202E0,1.290663805E0,3.245668695E0
6.365762208E0,2.878117658E0,-2.850788357E0,1.442569790E0,4.300181753E0
6.375750208E0,3.366832035E0,-2.746363517E0,1.704539230E0,4.667282347E0
6.385737208E0,3.299862705E0,-2.110555413E0,1.888366627E0,4.348501643E0
6.395725208E0,2.622891665E0,-1.255742771E0,1.955302044E0,3.504234107E0
6.405713208E0,1.530104508E0,-4.115404862E-1,2.031395223E0,2.576267053E0
6.415700208E0,1.849613182E-1,2.195676255E-1,2.194775784E0,2.213472695E0
6.425688208E0,-1.276832947E0,5.653772217E-1,1.978563145E0,2.421707227E0
6.435675208E0,-2.389277565E0,7.025605023E-1,1.489150171E0,2.901690331E0
6.445663208E0,-2.982833689E0,6.865929258E-1,9.604250515E-1,3.207978014E0
6.455650208E0,-2.981442929E0,6.106066042E-1,1.493040470E-1,3.046987703E0
6.465638208E0,-2.699516210E0,3.940549725E-1,1.041849576E-2,2.728145090E0
6.475626208E0,-2.248002550E0,1.477673256E-1,1.168694687E-1,2.255883223E0
6.485613208E0,-1.665523976E0,1.063292778E-1,3.885755467E-1,1.713553905E0
6.495601208E0,-1.160485635E0,1.909963757E-1,6.599693835E-1,1.348616369E0
6.505588208E0,-7.174653473E-1,3.756672335E-1,6.919103837E-1,1.065186544E0
6.515576208E0,-4.839613219E-1,5.897378916E-1,4.046553898E-1,8.635712630E-1
6.525564208E0,-3.704844077E-1,7.389483100E-1,1.705551128E-1,8.440333807E-1
6.535551208E0,-3.143245326E-1,8.084997708E-1,1.675659978E-1,8.834874955E-1
6.545539208E0,-2.103679088E-1,7.013454509E-1,4.391709191E-1,8.538215239E-1
6.555526208E0,-1.170660813E-1,4.383195645E-1,7.184608358E-1,8.497143523E-1
6.565514208E0,-5.257392392E-2,1.536771065E-1,9.270029515E-1,9.411244034E-1
6.575501208E0,2.247581989E-2,-1.043271911E-1,1.005710567E0,1.011357044E0
6.585489208E0,1.266425049E-1,-2.486902678E-1,9.785268617E-1,1.017546064E0
6.595477208E0,2.039666694E-1,-3.065847194E-1,7.523770255E-1,8.376561233E-1
6.605464208E0,1.503680210E-1,-2.356305116E-1,3.827476269E-1,4.739493914E-1
6.615452208E0,8.641029909E-2,8.970213532E-2,-2.521721385E-2,1.270791908E-1
6.625439208E0,-4.406900257E-3,5.031178236E-1,-4.100932273E-1,6.490943077E-1
6.635427208E0,-1.385692169E-1,9.127948022E-1,-6.825899220E-1,1.148183252E0
6.645415208E0,-2.028981639E-1,1.250841635E0,-8.262677050E-1,1.512775853E0
6.655402208E0,-1.511649234E-1,1.405134453E0,-8.458599705E-1,1.647037569E0
6.665390208E0,1.132028259E-2,1.347942837E0,-9.619353873E-1,1.656018638E0
6.675377208E0,6.096541659E-1,6.475358641E-1,-1.354476516E0,1.620366480E0
6.685365208E0,9.856378068E-1,1.237001860E-1,-1.478022774E0,1.780824231E0
6.695352208E0,1.278555683E0,-3.113273960E-1,-1.311023371E0,1.857528374E0
6.705340208E0,1.582701821E0,-6.339627224E-1,-9.708791421E-1,1.962004102E0
6.715328208E0,1.932558568E0,-8.717859399E-1,-6.751757987E-1,2.225006899E0
6.725315208E0,2.279666976E0,-9.537978172E-1,-4.889026576E-1,2.519054904E0
6.735303208E0,2.658793861E0,-9.072095418E-1,-4.897388095E-1,2.851676358E0
6.745290208E0,2.699277936E0,-9.118247491E-1,-5.351827848E-1,2.898956081E0
6.755278208E0,3.363780373E0,-4.406391549E-1,-1.529580305E0,3.721397207E0
6.765266208E0,3.585033751E0,-2.093917161E-1,-1.939604609E0,4.081467619E0
6.775253208E0,3.607740244E0,-2.178081983E-1,-1.994522827E0,4.128117172E0
6.785241208E0,3.068926630E0,2.510040110E-1,-6.847931528E-1,3.154402533E0
6.795228208E0,2.676627284E0,4.720293474E-1,4.276580438E-2,2.718266771E0
6.805216208E0,2.354417343E0,5.874568927E-1,1.470282376E-2,2.426644349E0
6.815204208E0,2.363741167E0,5.798976123E-1,-2.664517701E-2,2.433981000E0
6.825191208E0,1.494771977E0,3.794351792E-1,-1.302212056E0,2.018432698E0
6.835179208E0,9.922630676E-1,7.821586490E-2,-1.426392590E0,1.739338822E0
6.845166208E0,6.206375027E-1,-2.880221486E-1,-1.087778139E0,1.285071573E0
6.855154208E0,5.231572914E-1,-7.468280178E-1,-7.070090640E-1,1.153822974E0
6.865142208E0,6.144521718E-1,-1.297017097E0,-5.040679961E-1,1.521147385E0
6.875129208E0,9.568113260E-1,-1.896164913E0,-5.816842291E-1,2.202109405E0
6.885117208E0,1.387480686E0,-2.469135913E0,-7.990647036E-1,2.942828437E0
6.895104208E0,1.735271903E0,-2.788561118E0,-9.906212425E-1,3.430535255E0
6.905092208E0,2.025049825E0,-2.971144520E0,-1.179312353E0,3.784085646E0
6.915079208E0,2.374987263E0,-3.106687657E0,-1.423553182E0,4.161559366E0
6.925067208E0,2.829053087E0,-3.136706092E0,-1.757997838E0,4.575262055E0
6.935055208E0,3.298248289E0,-2.966041070E0,-2.043623505E0,4.883875350E0
6.945042208E0,3.696890694E0,-2.613655695E0,-2.096890617E0,4.989503698E0
6.955030208E0,4.002717907E0,-2.151219290E0,-1.961917730E0,4.949607687E0
6.965017208E0,4.159393758E0,-1.745096249E0,-2.047809088E0,4.953729849E0
6.975005208E0,3.941270687E0,-1.263775676E0,-2.446218921E0,4.807778135E0
6.984993208E0,3.313828195E0,-1.049629589E0,-3.594371755E0,5.000268782E0
6.994980208E0,2.242804521E0,-1.159738507E0,-5.108808210E0,5.698691679E0
7.004968208E0,9.873759647E-1,-1.652258837E0,-6.156735674E0,6.450601888E0
7.014955208E0,-4.635650642E-1,-2.109317558E0,-6.198777155E0,6.564217497E0
7.024943208E0,-1.609515105E0,-2.217088174E0,-4.881207680E0,5.597517955E0
7.034931208E0,-2.327332748E0,-2.094543983E0,-3.150060548E0,4.441449501E0
7.044918208E0,-2.646688371E0,-2.156188838E0,-1.854788845E0,3.885144952E0
7.054906208E0,-2.973810266E0,-1.804832574E0,-7.022552776E-1,3.548821014E0
7.064893208E0,-3.228443643E0,-1.587524312E0,3.966037738E-1,3.619444205E0
7.074881208E0,-3.174330001E0,-1.582563534E0,1.898133670E0,4.022908118E0
7.084868208E0,-2.719724772E0,-1.585557894E0,3.467908759E0,4.683725849E0
7.094856208E0,-2.154323138E0,-1.739243771E0,4.477493691E0,5.264411347E0
7.104844208E0,-1.856111047E0,-1.947258468E0,4.930551163E0,5.616698187E0
7.114831208E0,-1.408337704E0,-2.303880735E0,4.289761816E0,5.068859632E0
7.124819208E0,-1.051060549E0,-2.724163393E0,2.785829884E0,4.035671272E0
7.134806208E0,-1.131141383E0,-3.015545352E0,1.027466887E0,3.380633491E0
7.144794208E0,-1.225008782E0,-3.076524795E0,1.186764922E0,3.517678540E0
7.154782208E0,-1.092084467E0,-3.114751552E0,-7.312045500E-2,3.301465177E0
7.164769208E0,-4.880115420E-1,-3.101118184E0,-4.419661805E-1,3.170240268E0
7.174757208E0,5.718875116E-1,-2.963196985E0,1.815089759E-1,3.023332136E0
7.184744208E0,1.585324882E0,-2.506196736E0,1.615197430E0,3.376853535E0
7.194732208E0,2.237907770E0,-1.856131951E0,3.238128094E0,4.351888161E0
7.204720208E0,2.409235282E0,-1.173791120E0,4.041411564E0,4.849248155E0
7.214707208E0,2.026678274E0,-6.902831036E-1,3.931269902E0,4.476471672E0
7.224695208E0,9.962015328E-1,-4.618563616E-1,3.706387157E0,3.865622143E0
7.234682208E0,-3.634088382E-1,-6.790780842E-2,3.692706134E0,3.711166400E0
7.244670208E0,-1.888929568E0,4.022229481E-1,3.619537878E0,4.102547095E0
7.254658208E0,-3.169466287E0,1.076880537E0,3.546896456E0,4.877054717E0
7.264645208E0,-4.006314237E0,1.751689569E0,3.687857623E0,5.720075520E0
7.274633208E0,-4.360551133E0,2.441661601E0,3.771350308E0,6.260926505E0
7.284620208E0,-4.399564925E0,3.074225085E0,3.775419677E0,6.562074759E0
7.294608208E0,-4.327895018E0,3.374400086E0,3.690339181E0,6.613308892E0
7.304595208E0,-4.212665401E0,3.520654737E0,3.809670328E0,6.682450716E0
7.314583208E0,-3.978988152E0,3.686651927E0,3.885941701E0,6.672652550E0
7.324571208E0,-3.676252654E0,3.813040663E0,3.916313016E0,6.587231613E0
7.334558208E0,-3.343989595E0,3.976997175E0,3.770089940E0,6.419684657E0
7.344546208E0,-3.079649839E0,4.153065609E0,3.451992638E0,6.216787776E0
7.354533208E0,-2.813305365E0,4.383005610E0,3.126951767E0,6.074804739E0
7.364521208E0,-2.595224395E0,4.640506462E0,2.740404912E0,5.981580808E0
7.374509208E0,-2.512565230E0,4.860972220E0,2.209280972E0,5.901097981E0
7.384496208E0,-2.548321831E0,4.909376056E0,1.562276620E0,5.747749616E0
7.394484208E0,-2.546595148E0,4.680408447E0,6.532678896E-1,5.368251951E0
7.404471208E0,-2.378772312E0,4.097855029E0,-4.881676626E-1,4.763326696E0
7.414459208E0,-1.765537530E0,3.115729206E0,-2.120597422E0,4.161949625E0
7.424447208E0,-4.596357353E-1,1.838976805E0,-4.463190817E0,4.849038355E0
7.434434208E0,1.894758657E0,2.284688419E-1,-6.236978184E0,6.522438597E0
7.444422208E0,4.855190786E0,-1.639169260E0,-7.275087004E0,8.898687788E0
7.454409208E0,7.745850429E0,-4.270544942E0,-8.574486256E0,1.231899215E1
7.464397208E0,1.003910093E1,-7.547521645E0,-8.459258101E0,1.514290851E1
7.474385208E0,1.151743726E1,-9.620860115E0,-7.042274265E0,1.657727170E1
7.484372208E0,1.062765476E1,-9.696703180E0,-5.776095968E0,1.550278629E1
7.494360208E0,6.866393527E0,-7.681224078E0,-4.542161558E0,1.125965341E1
7.504347208E0,3.486214637E0,-4.369101516E0,-2.690221768E0,6.203227685E0
7.514335208E0,1.272062058E0,-1.511621021E0,-8.916343135E-1,2.167522027E0
7.524322208E0,-4.145344068E-1,6.616592288E-1,-2.046379298E-1,8.071606976E-1
7.534310208E0,-1.484575017E0,2.487803149E0,1.231423616E-3,2.897089748E0
7.544298208E0,-1.949269764E0,5.102677404E0,-9.256159920E-1,5.540192620E0
7.554285208E0,-1.616517292E0,5.185423692E0,2.129313281E-1,5.435723206E0
7.564273208E0,-1.884276061E0,4.480901449E0,1.648822428E0,5.132990305E0
7.574260208E0,-2.892684534E0,3.227913886E0,7.640580082E-1,4.401231249E0
7.584248208E0,-3.982130738E0,1.627842618E0,-1.025600164E0,4.422566280E0
7.594236208E0,-4.942381250E0,-2.102670443E-1,-2.921079490E0,5.744915146E0
7.604223208E0,-4.657724174E0,-2.094950949E0,-4.352104245E0,6.709994435E0
7.614211208E0,-2.577585391E0,-3.766431922E0,-2.735959566E0,5.321224542E0
7.624198208E0,-3.218589623E-1,-5.036205087E0,1.193653527E-1,5.047890942E0
7.634186208E0,1.183560063E0,-6.079361224E0,1.854991159E0,6.465325940E0
7.644174208E0,1.447024637E0,-6.287941931E0,3.817694754E0,7.497125267E0
7.654161208E0,3.488447396E-1,-4.694784996E0,5.811518401E0,7.479067117E0
7.664149208E0,-1.014100006E0,-2.142325675E0,6.282896953E0,6.715113718E0
7.674136208E0,-2.354788349E0,8.639787376E-2,5.679831503E0,6.149225859E0
7.684124208E0,-3.636800321E0,1.562088339E0,4.854084200E0,6.263271507E0
7.694112208E0,-4.162215917E0,2.416702761E0,4.554087831E0,6.626025169E0
7.704099208E0,-4.071730839E0,2.456629304E0,4.882321866E0,6.815503383E0
7.714087208E0,-3.768956750E0,1.806306072E0,5.149972608E0,6.632495343E0
7.724074208E0,-3.248802771E0,8.445379150E-1,5.259109719E0,6.239086373E0
7.734062208E0,-2.372421212E0,-4.065159738E-2,4.965837940E0,5.503597133E0
7.744050208E0,-1.278287442E0,-7.371368426E-1,3.684791051E0,3.969266254E0
7.754037208E0,-1.620979741E-1,-1.267828381E0,1.959125684E0,2.339196016E0
7.764025208E0,-1.464673434E-1,-1.226410798E0,1.823151023E0,2.202138911E0
7.774012208E0,1.226652873E0,-2.457684726E0,7.850117978E-1,2.856770030E0
7.784000208E0,1.304588218E0,-2.503287746E0,1.516709560E0,3.204498065E0
7.793988208E0,1.442617152E0,-1.966564804E0,2.364217276E0,3.396769746E0
7.803975208E0,1.657062032E0,-1.099646087E0,2.692286128E0,3.347160093E0
7.813963208E0,1.650798202E0,-1.079719945E0,2.602416762E0,3.265501932E0
7.823950208E0,9.576891392E-1,2.289173234E-1,2.407612387E0,2.601186082E0
7.833938208E0,6.018188238E-2,4.366326427E-1,2.123732991E0,2.168988645E0
7.843926208E0,-9.460441169E-1,3.773132247E-1,1.967216038E0,2.215243481E0
7.853913208E0,-1.758903133E0,1.154620439E-1,1.811597510E0,2.527638671E0
7.863901208E0,-2.261448368E0,-2.512764913E-1,1.485242039E0,2.717210428E0
7.873888208E0,-2.455116044E0,-4.762808579E-1,1.102711343E0,2.733205179E0
7.883876208E0,-2.415877719E0,-4.629334188E-1,7.783405633E-1,2.580036150E0
7.893864208E0,-2.230068262E0,-4.062774074E-1,4.158670603E-1,2.304606517E0
7.903851208E0,-1.946514994E0,-2.415490633E-1,3.016226260E-1,1.984500638E0
7.913839208E0,-1.538122503E0,1.039231485E-1,4.387600060E-1,1.602850959E0
7.923826208E0,-1.110307315E0,4.109803230E-1,5.380339602E-1,1.300449039E0
7.933814208E0,-5.234216952E-1,5.719845754E-1,7.514502418E-1,1.079728712E0
7.943801208E0,3.966005579E-2,6.270659316E-1,9.154050723E-1,1.110293227E0
7.953789208E0,4.754983543E-1,7.206085181E-1,1.052514020E0,1.361308593E0
7.963777833E0,7.582109387E-1,1.040483959E0,1.087262853E0,1.685120532E0
7.973764833E0,1.013878397E0,1.261153784E0,1.018239981E0,1.911876285E0
7.983752833E0,1.329629942E0,1.242762537E0,9.726036322E-1,2.063572711E0
7.993739833E0,1.619330826E0,9.839320278E-1,9.692473304E-1,2.128331494E0
8.003727833E0,1.645369355E0,9.896932894E-1,8.896866059E-1,2.116193606E0
8.013715833E0,1.451130990E0,1.349861308E0,9.755868816E-1,2.208998974E0
8.023702833E0,1.201361911E0,1.561231722E0,6.148703939E-1,2.063681306E0
8.033690833E0,1.413609408E0,5.340478402E-1,4.429581606E-1,1.574709683E0
8.043677833E0,1.424802148E0,-1.999396920E-1,3.396442920E-1,1.478308251E0
8.053665833E0,1.272566526E0,-6.613317847E-1,-3.961901564E-2,1.434696818E0
8.063653833E0,1.106470518E0,-8.749568850E-1,-4.348855313E-1,1.476127360E0
8.073640833E0,8.117917532E-1,-8.034787667E-1,-7.513607794E-1,1.367160195E0
8.083628833E0,6.109574372E-1,-6.067760932E-1,-9.589299184E-1,1.288795098E0
8.093615833E0,3.742533767E-1,-1.894410163E-1,-1.034094048E0,1.115931893E0
8.103603833E0,1.537088276E-1,3.351050985E-1,-9.353328218E-1,1.005370239E0
8.113591833E0,-9.290070847E-2,6.666375482E-1,-1.051539289E0,1.248507525E0
8.123578833E0,-3.322696374E-1,7.744321382E-1,-1.367776592E0,1.606536976E0
8.133566833E0,-3.876936404E-1,6.921419334E-1,-1.900854380E0,2.059760711E0
8.143553833E0,-2.867135417E-1,4.748576456E-1,-2.214004353E0,2.282435040E0
8.153541833E0,2.252084345E-2,1.727384448E-1,-1.920670009E0,1.928553614E0
8.163529833E0,4.979479348E-1,-2.150956750E-2,-1.145041530E0,1.248813402E0
8.173516833E0,9.857906384E-1,-2.405252159E-2,-2.282717907E-1,1.012160915E0
8.183504833E0,1.388881825E0,1.264425302E-1,3.653100604E-1,1.441676759E0
8.193491833E0,1.727538668E0,2.650659800E-1,5.913960157E-1,1.845101372E0
8.203479833E0,2.061190880E0,3.174353975E-1,4.615365189E-1,2.135951552E0
8.213467833E0,2.403150085E0,2.590018326E-1,9.046753585E-2,2.418759321E0
8.223454833E0,2.650908306E0,4.662277400E-2,-3.492838655E-1,2.674226570E0
8.233442833E0,2.788225196E0,-9.285261512E-2,-8.836546183E-1,2.926374350E0
8.243429833E0,2.719615429E0,-1.086471140E-1,-1.329363309E0,3.029078917E0
8.253417833E0,2.433930997E0,-6.050347924E-2,-1.529804692E0,2.875410087E0
8.263405833E0,2.058589161E0,-5.518485188E-2,-1.423711496E0,2.503555297E0
8.273392833E0,1.747284277E0,-5.300267100E-2,-1.038164222E0,2.033124831E0
8.283380833E0,1.662070464E0,-5.070237637E-2,-7.003116632E-1,1.804296369E0
8.293367833E0,1.836218088E0,-7.168277085E-2,-5.543511271E-1,1.919411488E0
8.303355833E0,2.149561166E0,-9.525289714E-2,-5.484606421E-1,2.220471886E0
8.313343833E0,2.431347405E0,-1.130798882E-1,-5.332381471E-1,2.491702267E0
8.323330833E0,2.698304375E0,-7.733878255E-2,-4.623055740E-1,2.738713973E0
8.333318833E0,2.845147255E0,-1.007720840E-1,-3.035038215E-1,2.863063479E0
8.343305833E0,2.895242691E0,-1.590442657E-1,-1.884798802E-1,2.905727100E0
8.353293833E0,2.947561530E0,-2.283834726E-1,-1.308064534E-1,2.959288481E0
8.363280833E0,2.985281041E0,-3.760052025E-1,-2.877012827E-1,3.022590749E0
8.373268833E0,3.055599656E0,-5.898858261E-1,-5.836926015E-1,3.166283563E0
8.383256833E0,3.117721060E0,-8.820980895E-1,-8.797581799E-1,3.357418071E0
8.393243833E0,3.224994956E0,-1.194525931E0,-1.223343788E0,3.650212965E0
8.403231833E0,3.406429672E0,-2.032554141E0,-2.108032340E0,4.492086352E0
8.413218833E0,3.414051810E0,-2.554001817E0,-2.457208178E0,4.921031098E0
8.423206833E0,3.203742373E0,-3.077857960E0,-2.565813777E0,5.130358190E0
8.433194833E0,2.694247284E0,-3.483085207E0,-2.531679486E0,5.079394847E0
8.443181833E0,2.609402723E0,-3.479865730E0,-2.458047838E0,4.996043159E0
8.453169833E0,1.066815944E0,-3.467358536E0,-2.431650729E0,4.367332910E0
8.463156833E0,7.819583818E-2,-3.118881440E0,-2.772755510E0,4.173932096E0
8.473144833E0,-8.370324290E-1,-2.578280041E0,-3.466776738E0,4.400760412E0
8.483132833E0,-1.718846636E0,-1.879086365E0,-4.070622207E0,4.801600200E0
8.493119833E0,-2.282307141E0,-1.256921570E0,-4.487414370E0,5.188994647E0
8.503107833E0,-2.534992226E0,-7.709314102E-1,-4.343938023E0,5.088252979E0
8.513094833E0,-2.807138892E0,-3.842164475E-1,-3.781748704E0,4.725386153E0
8.523082833E0,-3.074256075E0,-1.382468891E-1,-3.141876200E0,4.397902759E0
8.533070833E0,-3.369534034E0,6.296281815E-2,-2.570495058E0,4.238533799E0
8.543057833E0,-3.726507719E0,1.284352612E-1,-1.910805756E0,4.189813126E0
8.553045833E0,-3.917016436E0,-2.398001611E-2,-1.096827729E0,4.067754156E0
8.563032833E0,-3.674052932E0,-4.852580881E-1,-2.593333697E-1,3.715022766E0
8.573020833E0,-3.070113323E0,-1.115665703E0,7.083328005E-1,3.342460341E0
8.583008833E0,-2.369266493E0,-1.902778113E0,1.697329760E0,3.480648873E0
8.592995833E0,-1.798423879E0,-2.701770312E0,2.003293505E0,3.814062943E0
8.602983833E0,-1.042970780E0,-3.005219754E0,2.298653909E0,3.924658407E0
8.612970833E0,9.372618914E-2,-3.040027059E0,1.839068460E0,3.554254059E0
8.622958833E0,9.946265852E-1,-3.116375324E0,8.350491996E-1,3.376149340E0
8.632946833E0,1.483891478E0,-3.295298368E0,2.918006194E-1,3.625751351E0
8.642933833E0,1.828330487E0,-3.255246695E0,1.132933116E-1,3.735272251E0
8.652921833E0,1.946910558E0,-3.161314099E0,3.222637358E-1,3.726690418E0
8.662908833E0,1.960056269E0,-2.881619555E0,1.453212453E0,3.775894367E0
8.672896833E0,1.628892193E0,-2.439780552E0,2.127566426E0,3.623859519E0
8.682884833E0,1.210712194E0,-1.684156567E0,2.086777419E0,2.942252089E0
8.692871833E0,6.069558951E-1,-9.462660187E-1,1.638695343E0,1.987243635E0
8.702859833E0,-2.475801739E-1,-1.425486857E-1,1.760289946E0,1.783321835E0
8.712846833E0,-1.207837118E0,6.527463180E-1,2.233755662E0,2.621948249E0
8.722834833E0,-2.298371488E0,1.240100884E0,2.582263749E0,3.672662218E0
8.732822833E0,-3.188873781E0,1.709560965E0,2.656084846E0,4.488463144E0
8.742809833E0,-3.613522555E0,2.314473551E0,2.453287035E0,4.942969791E0
8.752797833E0,-3.817599152E0,2.519302685E0,2.373064114E0,5.152900406E0
8.762784833E0,-3.740235227E0,2.508342079E0,2.442726964E0,5.123285524E0
8.772772833E0,-3.587464439E0,2.625105128E0,2.522686761E0,5.111264670E0
8.782760833E0,-3.586007897E0,2.477144845E0,2.666285899E0,5.109283679E0
8.792747833E0,-3.636912003E0,2.504487594E0,2.774397700E0,5.215061804E0
8.802735833E0,-3.807529955E0,2.633375430E0,2.825607322E0,5.423652575E0
8.812722833E0,-3.963085479E0,2.860951987E0,2.820113863E0,5.643060782E0
8.822710833E0,-4.123705862E0,3.148762466E0,2.837883552E0,5.913817562E0
8.832698833E0,-4.169944181E0,3.497282832E0,2.874050627E0,6.154639607E0
8.842685833E0,-4.018001651E0,3.848832639E0,3.015907587E0,6.328787288E0
8.852673833E0,-3.987489126E0,3.873749380E0,2.988833517E0,6.311824584E0
8.862660833E0,-3.678916646E0,4.249494381E0,2.893106703E0,6.321605538E0
8.872648833E0,-3.206393501E0,4.493197559E0,2.591549712E0,6.098025376E0
8.882636833E0,-2.792910277E0,4.457825412E0,2.149875600E0,5.682826789E0
8.892623833E0,-2.427085662E0,4.378767548E0,1.324940475E0,5.178785313E0
8.902611833E0,-2.026586473E0,4.189254611E0,-7.630382538E-2,4.654323711E0
8.912598833E0,-1.534440072E0,3.693599589E0,-2.148023494E0,4.539954756E0
8.922586833E0,-4.501411727E-1,2.993126543E0,-4.684566694E0,5.577328992E0
8.932574833E0,1.573489240E0,1.996300820E0,-6.588970041E0,7.062266744E0
8.942561833E0,4.291186490E0,6.855509520E-1,-7.366317601E0,8.552595899E0
8.952549833E0,6.881534307E0,-1.158339853E0,-7.891487614E0,1.053436483E1
8.962536833E0,9.051377563E0,-3.664620203E0,-7.836264755E0,1.252054002E1
8.972524000E0,1.060355604E1,-6.443543941E0,-7.038192909E0,1.426502081E1
8.982512000E0,1.105680998E1,-8.515414760E0,-5.444713207E0,1.498032835E1
8.992499000E0,9.402556658E0,-9.029602532E0,-3.915613689E0,1.361153276E1
9.002487000E0,6.029618375E0,-7.323108432E0,-3.048599077E0,9.963843194E0
9.012474000E0,2.928820619E0,-4.587420761E0,-2.006644252E0,5.800779311E0
9.022462000E0,3.911325341E-1,-2.412978669E0,-8.319970992E-1,2.582183164E0
9.032450000E0,-1.979833014E0,-7.224802119E-1,-6.086673751E-1,2.193670985E0
9.042437000E0,-3.987335344E0,6.219309068E-1,-1.166479762E0,4.200751865E0
9.052425000E0,-5.401211092E0,1.321777132E0,-1.326653417E0,5.716658582E0
9.062412000E0,-6.370984672E0,1.630614783E0,-2.155712290E0,6.920653563E0
9.072400000E0,-6.186136644E0,1.655386512E0,-3.696089041E0,7.393893783E0
9.082388000E0,-4.388519534E0,1.043661920E0,-3.860808614E0,5.937522805E0
9.092375000E0,-2.402462744E0,-2.829672307E-1,-3.176615678E0,3.992841702E0
9.102363000E0,-5.873367324E-1,-1.694996136E0,-1.578478962E0,2.389471107E0
9.112350000E0,1.151413826E0,-2.667034342E0,1.397266147E0,3.223535120E0
9.122338000E0,2.119299486E0,-2.729297833E0,4.785320652E0,5.902524097E0
9.132326000E0,1.054478831E0,-2.044701147E0,6.557543011E0,6.949395566E0
9.142313000E0,-6.136078338E-1,-1.525620425E-1,6.078109335E0,6.110908511E0
9.152301000E0,-2.461638321E0,1.347552828E0,4.445947671E0,5.257567169E0
9.162288000E0,-4.293187408E0,1.867003679E0,2.867463154E0,5.489945882E0
9.172276000E0,-5.224573140E0,2.108900651E0,2.320669845E0,6.093368114E0
9.182264000E0,-5.593868077E0,1.995330766E0,2.850876650E0,6.587883014E0
9.192251000E0,-5.433514620E0,1.592055904E0,3.295309478E0,6.551090572E0
9.202239000E0,-4.881952322E0,8.557417649E-1,3.531903318E0,6.086057303E0
9.212226000E0,-3.928179356E0,1.604095906E-1,3.088356636E0,4.999427067E0
9.222214000E0,-2.791215169E0,-5.394828272E-1,2.469848396E0,3.765909577E0
9.232202000E0,-1.756576087E0,-1.299262428E0,2.235679396E0,3.126004602E0
9.242189000E0,-1.025078300E0,-1.826749692E0,2.063529181E0,2.940400082E0
9.252177000E0,-7.881751415E-1,-2.154567990E0,1.946313704E0,3.008574465E0
9.262164000E0,-7.788304138E-1,-1.888225563E0,1.905122262E0,2.793109992E0
9.272152000E0,-6.200320235E-1,-1.348379624E0,1.722715008E0,2.273832518E0
9.282140000E0,-3.600127754E-1,-6.113380909E-1,1.626055855E0,1.774091628E0
9.292127000E0,-2.844762509E-1,1.562434494E-2,1.365401892E0,1.394809372E0
9.302115000E0,-4.297004762E-1,4.789471883E-1,1.313123106E0,1.462301337E0
9.312102000E0,-6.978204569E-1,5.366568679E-1,1.595624460E0,1.822353259E0
9.322090000E0,-1.047379726E0,2.916450834E-1,1.937631758E0,2.221818619E0
9.332078000E0,-1.252651640E0,-6.734706044E-2,2.093155854E0,2.440281375E0
9.342065000E0,-1.357360655E0,-4.521716183E-1,2.176692831E0,2.604779991E0
9.352053000E0,-1.302464802E0,-8.203158242E-1,1.881124120E0,2.430629664E0
9.362040000E0,-1.075116286E0,-1.121443337E0,1.251356775E0,1.994844346E0
9.372028000E0,-8.716920921E-1,-1.103112901E0,7.228948525E-1,1.580911808E0
9.382016000E0,-6.295524600E-1,-8.272927219E-1,4.522868085E-1,1.133716413E0
9.392003000E0,-3.828571160E-1,-4.117749596E-1,3.263822222E-1,6.501257906E-1
9.401991000E0,-1.139055151E-1,1.756328166E-2,3.579022594E-1,3.760012799E-1
9.411978000E0,2.173559162E-1,4.482054520E-1,5.462410025E-1,7.392637921E-1
9.421966000E0,5.617955098E-1,8.415078878E-1,6.920858002E-1,1.225859892E0
9.431954000E0,9.103452574E-1,1.128068233E0,7.956949532E-1,1.653601186E0
9.441941000E0,1.231715539E0,1.192764165E0,7.543563080E-1,1.873195922E0
9.451929000E0,1.395136445E0,1.174315031E0,6.126186311E-1,1.923726352E0
9.461916000E0,1.375846481E0,1.048603402E0,2.373291278E-1,1.746095000E0
9.471904000E0,1.227787525E0,9.123200083E-1,-2.171579880E-1,1.544974950E0
9.481892000E0,1.085697700E0,7.319784290E-1,-3.700135607E-1,1.360677019E0
9.491879000E0,1.021581519E0,4.638461691E-1,-3.111016935E-1,1.164287907E0
9.501867000E0,1.061907718E0,3.094100940E-1,7.803222578E-2,1.108815421E0
9.511854000E0,1.092759821E0,2.042093289E-1,5.254483402E-1,1.229602145E0
9.521842000E0,1.080134659E0,2.572318804E-1,6.586870891E-1,1.291018127E0
9.531830000E0,1.126666655E0,3.714718562E-1,5.169213456E-1,1.294054392E0
9.541817000E0,1.175172086E0,3.730120128E-1,4.318168028E-1,1.306381700E0
9.551805000E0,7.738325062E-1,5.147929591E-1,1.084295245E-1,9.357272574E-1
9.561792000E0,5.738808274E-1,5.705847520E-1,-2.337991637E-1,8.423587194E-1
9.571780000E0,3.702481071E-1,6.408185828E-1,-8.001675615E-1,1.089954239E0
9.581768000E0,2.604352775E-1,5.933520555E-1,-1.377232710E0,1.522058846E0
9.591755000E0,3.994099988E-1,4.560149932E-1,-2.016169220E0,2.105330460E0
9.601743000E0,6.862881397E-1,4.344329202E-1,-2.419442182E0,2.552141031E0
9.611730000E0,1.108238936E0,4.977576810E-1,-2.191308385E0,2.505551573E0
9.621718000E0,1.561202194E0,5.961522871E-1,-1.760574560E0,2.427420981E0
9.631706000E0,1.997292653E0,6.052306741E-1,-1.429830315E0,2.529801740E0
9.641693000E0,2.355732382E0,4.077240086E-1,-1.161555237E0,2.657992567E0
9.651681000E0,2.587373046E0,1.404366714E-1,-9.321091788E-1,2.753733694E0
9.661668000E0,2.784398485E0,-1.035717309E-1,-7.651325803E-1,2.889468791E0
9.671656000E0,2.976171371E0,-2.895184511E-1,-7.445228992E-1,3.081514451E0
9.681644000E0,3.060544062E0,-2.877251101E-1,-8.293850018E-1,3.183959041E0
9.691631000E0,3.008192186E0,-1.607867360E-1,-8.741166401E-1,3.136742339E0
9.701619000E0,3.051922342E0,-1.641102934E-1,-9.096700501E-1,3.188833921E0
9.711606000E0,2.799496581E0,5.765705466E-2,-7.980683380E-1,2.911600679E0
9.721594000E0,2.418576063E0,1.889083350E-1,-5.500079615E-1,2.487509857E0
9.731582000E0,2.080440206E0,1.661036092E-1,-3.006299150E-1,2.108601481E0
9.741569000E0,1.865864203E0,6.536368489E-2,-2.013208044E-1,1.877831648E0
9.751557000E0,1.705327143E0,-2.575739425E-1,-4.711939265E-1,1.787878272E0
9.761544000E0,1.789305000E0,-6.048669773E-1,-1.037367393E0,2.154903142E0
9.771532000E0,2.003357532E0,-7.245173818E-1,-1.645568452E0,2.691888253E0
9.781520000E0,2.205981388E0,-7.809915447E-1,-1.894435160E0,3.010844774E0
9.791507000E0,2.292402358E0,-7.629330039E-1,-1.639021910E0,2.919515056E0
9.801495000E0,2.358023321E0,-9.549584895E-1,-1.008620726E0,2.736701567E0
9.811483000E0,2.408283063E0,-1.542519463E0,-5.235298687E-1,2.907451999E0
9.821470000E0,2.432001708E0,-2.137226903E0,-6.718662746E-1,3.306625990E0
9.831458000E0,2.489189524E0,-2.483904226E0,-1.403603652E0,3.786284181E0
9.841445000E0,2.620105174E0,-2.394701443E0,-1.980139846E0,4.064541787E0
9.851433000E0,2.601489394E0,-2.495509195E0,-2.082853644E0,4.163363125E0
9.861421000E0,2.636822656E0,-2.295275388E0,-1.925082902E0,3.990872963E0
9.871408000E0,2.886521569E0,-1.970045652E0,-1.742497162E0,3.905045838E0
9.881396000E0,3.075029369E0,-1.808254364E0,-1.861320770E0,4.023692890E0
9.891383000E0,3.122645585E0,-1.572735534E0,-1.836291178E0,3.949224962E0
9.901371000E0,2.974175717E0,-1.347759819E0,-1.734353744E0,3.697318033E0
9.911359000E0,2.749116386E0,-1.171956264E0,-1.825689592E0,3.502037246E0
9.921346000E0,2.378773627E0,-9.997364670E-1,-2.431803780E0,3.545660249E0
9.931334000E0,1.733014732E0,-1.156986807E0,-3.352588803E0,3.947380171E0
9.941321000E0,1.106128164E0,-1.255611209E0,-3.917923924E0,4.260305963E0
9.951309000E0,2.785363568E-1,-1.238577100E0,-4.148422335E0,4.338324977E0
9.961297000E0,-6.570378819E-1,-1.156621356E0,-4.019694128E0,4.234077541E0
9.971284625E0,-1.668240885E0,-1.345474142E0,-3.362940128E0,3.987818279E0
9.981272625E0,-2.646157444E0,-1.737301911E0,-1.559681625E0,3.528877147E0
9.991259625E0,-3.663791653E0,-2.143405071E0,6.318828678E-1,4.291483489E0
1.000124763E1,-4.445269101E0,-2.467737259E0,1.916244836E0,5.433427908E0
1.001123562E1,-4.397000628E0,-2.494156734E0,2.056437678E0,5.457414064E0
1.002122263E1,-3.927837878E0,-2.353749883E0,1.876522361E0,4.948675084E0
1.003121063E1,-4.068479787E0,-2.718514983E0,1.154964255E0,5.027603199E0
1.004119762E1,-4.354853021E0,-3.065279430E0,5.538272166E-1,5.354195308E0
1.005118563E1,-4.043303138E0,-3.331485032E0,7.621224336E-1,5.294140477E0
1.006117362E1,-3.377398246E0,-3.744019545E0,8.342007686E-1,5.110811304E0
1.007116063E1,-2.173934846E0,-3.966454060E0,9.802459431E-1,4.628134898E0
1.008114862E1,-6.481147385E-1,-3.845332496E0,1.298945070E0,4.110218123E0
1.009113562E1,9.884317526E-1,-3.381447735E0,1.383750016E0,3.784963702E0
1.010112363E1,2.327098274E0,-2.166852990E0,1.785554011E0,3.646757654E0
1.011111162E1,2.147941926E0,-2.256776735E0,1.876267422E0,3.636904616E0
1.012109863E1,8.020359662E-1,-1.098355606E0,1.882844663E0,2.322660275E0
1.013108662E1,-4.457323721E-1,-6.583111131E-1,2.105653108E0,2.250738963E0
1.014107463E1,-1.390868124E0,-1.003692108E-1,2.003339113E0,2.440892402E0
1.015106163E1,-2.006534909E0,6.053920573E-1,2.595169138E0,3.335803462E0
1.016104962E1,-2.315711114E0,1.245226554E0,3.400093044E0,4.298108868E0
1.017103663E1,-2.679110012E0,1.836527406E0,3.663256925E0,4.895907951E0
1.018102462E1,-3.177105967E0,2.289312982E0,3.599861998E0,5.319206958E0
1.019101263E1,-3.551594987E0,2.675226876E0,3.554355165E0,5.692460490E0
1.020099963E1,-3.847751489E0,2.994519349E0,3.583122296E0,6.050710954E0
1.021098762E1,-4.129051679E0,3.122320188E0,3.754662062E0,6.394954130E0
1.022097463E1,-4.348197135E0,3.119697127E0,3.855424206E0,6.595727731E0
1.023096262E1,-4.490572159E0,3.158989831E0,3.901056754E0,6.735183655E0
1.024095063E1,-4.614828707E0,3.260416219E0,3.711842317E0,6.760527443E0
1.025093763E1,-4.745279504E0,3.434723471E0,3.327915307E0,6.737211826E0
1.026092562E1,-4.758885975E0,3.631839543E0,2.905949235E0,6.654456788E0
1.027091263E1,-4.496415281E0,3.958110083E0,2.619074895E0,6.537884912E0
1.028090062E1,-4.032215648E0,4.390808135E0,2.355000603E0,6.409679161E0
1.029088863E1,-3.615595393E0,4.715509282E0,1.822481517E0,6.215303429E0
1.030087563E1,-3.179675818E0,4.864288761E0,1.316899384E0,5.958680009E0
1.031086362E1,-2.526182226E0,4.718121234E0,8.489139712E-1,5.418756273E0
1.032085163E1,-1.614318301E0,4.131226258E0,-1.347695500E-2,4.435452130E0
1.033083862E1,-3.795459840E-1,3.215653444E0,-1.726577532E0,3.669543868E0
1.034082663E1,1.406427565E0,2.020650380E0,-4.479058406E0,5.111069424E0
1.035081363E1,3.682587820E0,1.247357279E-1,-7.143125871E0,8.037490857E0
1.036080163E1,5.862245336E0,-2.646491904E0,-8.667700814E0,1.079346456E1
1.037078963E1,7.445324010E0,-6.062043525E0,-8.717486347E0,1.296826085E1
1.038077662E1,8.631029416E0,-9.016270881E0,-7.310552706E0,1.446485362E1
1.039076463E1,8.998133987E0,-1.024020304E1,-5.089926381E0,1.455113481E1
1.040075162E1,7.299683901E0,-9.255781605E0,-2.626644408E0,1.207700869E1
1.041073963E1,4.110657215E0,-6.545084349E0,-1.293372235E0,7.836353975E0
1.042072763E1,1.481307593E0,-3.368024867E0,-6.461971441E-1,3.735697317E0
1.043071462E1,-4.806858578E-1,-5.953997505E-1,-2.718975744E-1,8.120886945E-1
1.044070263E1,-1.916388093E0,1.937662602E0,-1.295696211E-1,2.728345280E0
1.045068962E1,-2.969728617E0,3.978889918E0,2.033515424E-2,4.965004185E0
1.046067763E1,-3.597871021E0,5.324644142E0,3.344724298E-2,6.426323198E0
1.047066563E1,-3.538110723E0,5.919169734E0,2.406538546E-1,6.900196527E0
1.048065262E1,-3.106004409E0,5.115393344E0,1.134220380E0,6.091056421E0
1.049064063E1,-2.572381077E0,3.448663818E0,6.922039139E-1,4.357702697E0
1.050062762E1,-2.331940646E0,1.923193082E0,-4.766591728E-1,3.060036401E0
1.051061563E1,-2.359792103E0,3.675401884E-1,-1.786289006E0,2.982370362E0
1.052060363E1,-1.764685883E0,-1.347104346E0,-2.708039404E0,3.501754389E0
1.053059062E1,-4.280290496E-1,-3.716087980E0,-2.735025766E0,4.633884406E0
1.054057863E1,1.682772239E0,-6.468177676E0,-1.618772125E0,6.876733821E0
1.055056662E1,3.901459334E0,-8.589575581E0,-3.539866349E-1,9.440736207E0
1.056055363E1,3.922691452E0,-8.590552651E0,-3.328498274E-1,9.449650368E0
1.057054163E1,4.030164152E0,-9.077150921E0,1.358157630E0,1.002404530E1
1.058052862E1,1.979545038E0,-6.582745095E0,3.082624025E0,7.533505322E0
1.059051663E1,-7.645082438E-1,-2.521103042E0,3.288028233E0,4.213260384E0
1.060050462E1,-3.258361799E0,4.580463159E-1,2.643368614E0,4.220678343E0
1.061049163E1,-5.239730292E0,2.653092241E0,1.756781909E0,6.130249151E0
1.062047962E1,-6.808543514E0,4.138993115E0,1.583630944E0,8.123756259E0
1.063046662E1,-7.559529487E0,4.778089108E0,2.431201225E0,9.267543417E0
1.064045463E1,-7.043726714E0,4.837725445E0,4.045842876E0,9.454444356E0
1.065044262E1,-5.784058122E0,4.238730242E0,5.286548363E0,8.908970536E0
1.066042963E1,-4.291116908E0,2.903212153E0,5.359153240E0,7.454049140E0
1.067041762E1,-2.639165343E0,9.587024617E-1,4.902971016E0,5.650082203E0
1.068040462E1,-8.665436187E-1,-1.149429865E0,4.046895668E0,4.295282459E0
1.069039263E1,9.739433755E-1,-2.760515533E0,2.536305803E0,3.873223313E0
1.070038062E1,2.392596591E0,-3.653217548E0,1.254446443E0,4.543583694E0
1.071036763E1,3.018680337E0,-3.917174311E0,6.178974974E-1,4.983822115E0
1.072035562E1,2.907671825E0,-3.543551849E0,6.204816744E-2,4.584230047E0
1.073034363E1,2.561800833E0,-2.348150005E0,-2.800852843E-1,3.486413590E0
1.074033063E1,2.194985261E0,-8.941129482E-1,-7.613644883E-2,2.371327691E0
1.075031862E1,1.714851380E0,3.244736910E-1,4.200231881E-1,1.795109442E0
1.076030563E1,1.025764178E0,9.004641938E-1,1.067030318E0,1.732507320E0
1.077029362E1,1.006514852E-1,9.071586710E-1,1.805152562E0,2.022781093E0
1.078028163E1,-7.011269112E-1,7.085807955E-1,2.340702406E0,2.544121350E0
1.079026863E1,-1.228759917E0,5.058584136E-1,2.571738760E0,2.894751098E0
1.080025662E1,-1.530335035E0,4.351989055E-1,2.259047209E0,2.763081196E0
1.081024363E1,-1.552284605E0,3.975036603E-1,1.530249081E0,2.215684748E0
1.082023162E1,-1.412484842E0,3.059502965E-1,8.483736885E-1,1.675845138E0
1.083021963E1,-1.209165605E0,9.951551735E-2,3.633541667E-1,1.266495578E0
1.084020663E1,-7.948592399E-1,-1.137891555E-1,2.608605894E-1,8.442733149E-1
1.085019462E1,-1.895924592E-1,-1.922231215E-1,4.640291870E-1,5.368594932E-1
1.086018163E1,3.584625323E-1,-6.629923940E-2,6.966958181E-1,7.863053091E-1
1.087016962E1,8.589059857E-1,2.112534696E-1,9.332729939E-1,1.285825028E0
1.088015763E1,1.016121096E0,5.695954031E-1,8.774589086E-1,1.458381000E0
1.089014463E1,9.208073880E-1,9.036368930E-1,4.789805174E-1,1.376178846E0
1.090013262E1,7.857504474E-1,1.129441743E0,1.090786386E-1,1.380195844E0
1.091012063E1,6.621609199E-1,1.164835525E0,-1.745960321E-3,1.339888776E0
1.092010762E1,4.833497031E-1,1.089647348E0,5.362129728E-2,1.193244955E0
1.093009563E1,3.531288484E-1,9.227350688E-1,1.151468790E-1,9.946852741E-1
1.094008263E1,1.948562689E-1,8.023280346E-1,1.941532874E-1,8.481714094E-1
1.095007063E1,9.860042810E-2,6.680040425E-1,3.084458882E-1,7.423545724E-1
1.096005863E1,6.705733091E-2,5.380391496E-1,3.920675405E-1,6.691037053E-1
1.097004533E1,5.227630064E-2,5.826721162E-1,2.368139515E-1,6.311263378E-1
1.098003333E1,1.102189187E-1,7.667021191E-1,-1.109936017E-1,7.824959611E-1
1.099002033E1,2.390637043E-1,9.956708980E-1,-4.538579919E-1,1.120044226E0
1.100000833E1,3.992463499E-1,1.161658732E0,-9.520676992E-1,1.554117615E0
1.100999633E1,5.673800392E-1,1.220336711E0,-1.802559761E0,2.249525169E0
1.101998333E1,7.577007692E-1,1.109713823E0,-3.045777211E0,3.329013975E0
1.102997133E1,1.065283974E0,7.985285139E-1,-4.313893275E0,4.514659779E0
1.103995933E1,1.467243285E0,2.601204050E-1,-4.850082366E0,5.073831337E0
1.104994633E1,2.029368432E0,-3.243169856E-1,-3.905090455E0,4.412850463E0
1.105993433E1,2.609983059E0,-6.974471122E-1,-2.099284905E0,3.421321551E0
1.106992133E1,3.107632274E0,-8.210274303E-1,-6.873659277E-1,3.286934181E0
1.107990933E1,3.603853892E0,-6.701359373E-1,-3.122340068E-2,3.665763215E0
1.108989733E1,4.075630055E0,-3.248637003E-1,7.346587926E-3,4.088563408E0
1.109988433E1,4.443691230E0,-3.742218018E-2,-3.299155484E-1,4.456078594E0
1.110987233E1,4.734570621E0,1.271517974E-1,-7.923521000E-1,4.802098332E0
1.111985933E1,5.034093658E0,2.091256678E-1,-8.575358368E-1,5.110890354E0
1.112984733E1,5.175522602E0,4.102260321E-1,-4.149296055E-1,5.208309339E0
1.113983533E1,5.233332853E0,6.204170626E-1,4.017674500E-1,5.285272667E0
1.114982233E1,5.304357228E0,5.388875806E-1,9.437563938E-1,5.414543522E0
1.115981033E1,5.167521272E0,1.410295790E-1,9.534678881E-1,5.256640224E0
1.116979733E1,4.709977816E0,-3.702877951E-1,2.570077859E-1,4.731496284E0
1.117978533E1,3.937298381E0,-8.529023570E-1,-7.826517154E-1,4.103937704E0
1.118977333E1,3.028677614E0,-1.234219755E0,-1.624766252E0,3.651855948E0
1.119976033E1,2.184280032E0,-1.578329566E0,-2.009488191E0,3.361583892E0
1.120974833E1,1.475478650E0,-2.224201897E0,-2.135296883E0,3.418128743E0
1.121973633E1,1.145711109E0,-3.206981438E0,-2.255204419E0,4.084523334E0
1.122972333E1,1.248675680E0,-4.165668697E0,-2.248725704E0,4.895789409E0
1.123971133E1,1.593164536E0,-4.814658764E0,-2.427110951E0,5.622275324E0
1.124969833E1,1.937809367E0,-4.900022850E0,-2.897934456E0,6.013597358E0
1.125968633E1,2.197652760E0,-4.355695605E0,-3.587987764E0,6.056023287E0
1.126967433E1,2.456277301E0,-3.546974224E0,-3.986369677E0,5.874135471E0
1.127966133E1,2.101767048E0,-2.635073462E0,-3.457850379E0,4.828847286E0
1.128964933E1,1.409017297E0,-1.923928662E0,-2.627998331E0,3.548690810E0
1.129963733E1,5.030659296E-1,-1.475010434E0,-2.106250693E0,2.620118908E0
1.130962433E1,-9.394942121E-1,-1.331761837E0,-1.839673208E0,2.457770632E0
1.131961233E1,-2.508720978E0,-1.555097993E0,-1.211548930E0,3.190589526E0
1.132959933E1,-3.838748531E0,-1.864409269E0,-2.696070007E-1,4.276061289E0
1.133958733E1,-4.496399494E0,-2.214613048E0,3.102976283E-1,5.021792905E0
1.134957533E1,-4.430504882E0,-2.406464871E0,1.109360797E0,5.162473057E0
1.135956233E1,-3.896897922E0,-2.285354417E0,1.716098299E0,4.832561597E0
1.136955033E1,-3.426077194E0,-2.316175675E0,1.601020124E0,4.434629650E0
1.137953733E1,-2.777477136E0,-2.211357318E0,1.612338141E0,3.899245403E0
1.138952533E1,-1.844837177E0,-2.011464989E0,2.006516344E0,3.387554198E0
1.139951333E1,-3.803745344E-1,-1.813423303E0,2.116799363E0,2.813188299E0
1.140950033E1,-4.583363378E-1,-1.868043314E0,2.264563618E0,2.971179295E0
1.141948833E1,6.890376467E-1,-1.863872495E0,2.103436428E0,2.893654845E0
1.142947633E1,1.236513618E0,-1.953712624E0,1.837526987E0,2.953381854E0
1.143946333E1,1.614345198E0,-1.999148414E0,1.550786549E0,3.001273682E0
1.144945133E1,1.815134783E0,-1.902320861E0,1.866528592E0,3.224510494E0
1.145943833E1,1.762317469E0,-1.765124132E0,2.439991636E0,3.489267150E0
1.146942633E1,1.393917739E0,-1.616990771E0,2.810291710E0,3.529221630E0
1.147941433E1,6.138152638E-1,-1.366235266E0,3.244463553E0,3.573501326E0
1.148940133E1,-4.606079811E-1,-1.082107363E0,3.296005589E0,3.499538384E0
1.149938933E1,-1.528884925E0,-7.916463411E-1,2.772428066E0,3.263518105E0
1.150937633E1,-2.440382523E0,-4.704786658E-1,2.352268491E0,3.421985401E0
1.151936433E1,-3.108130749E0,-7.806383729E-2,2.279607189E0,3.855279452E0
1.152935233E1,-3.657618747E0,1.893486303E-1,2.218958991E0,4.282266550E0
1.153933933E1,-4.095479305E0,4.109224355E-1,2.389778964E0,4.759501180E0
1.154932733E1,-4.201693393E0,6.941375881E-1,2.674096902E0,5.028603047E0
1.155931533E1,-4.154345564E0,1.002235567E0,2.753904379E0,5.083999658E0
1.156930233E1,-4.091085123E0,1.396615645E0,2.708791063E0,5.101476430E0
1.157929033E1,-4.031465743E0,1.778022505E0,2.684782396E0,5.159664386E0
1.158927733E1,-3.965965525E0,2.149566282E0,2.809239212E0,5.314258433E0
1.159926533E1,-4.032403051E0,2.501785011E0,2.942247873E0,5.583549512E0
1.160925333E1,-4.217888719E0,2.781492419E0,2.959674914E0,5.855506888E0
1.161924033E1,-4.515353243E0,3.065552495E0,2.785026476E0,6.127185282E0
1.162922833E1,-4.815135312E0,3.343839029E0,2.549114421E0,6.392555972E0
1.163921533E1,-4.881010921E0,3.560856684E0,2.395817091E0,6.499531327E0
1.164920333E1,-4.748849229E0,3.692136616E0,2.262761360E0,6.426782302E0
1.165919133E1,-4.519902669E0,3.679690817E0,2.172253771E0,6.219994461E0
1.166917833E1,-4.147119283E0,3.590405003E0,2.149276552E0,5.891434132E0
1.167916633E1,-3.685940321E0,3.595679777E0,1.915423594E0,5.493989138E0
1.168915433E1,-3.155244105E0,3.560262607E0,1.490334817E0,4.985191376E0
1.169914133E1,-2.546691043E0,3.405642929E0,7.376686469E-1,4.316039163E0
1.170912933E1,-1.826321676E0,2.978033125E0,-2.400983691E-1,3.501682365E0
1.171911633E1,-6.126101527E-1,2.404094995E0,-1.495757817E0,2.896938969E0
1.172910433E1,1.204275286E0,1.591285241E0,-3.192458124E0,3.764871387E0
1.173909233E1,3.413318569E0,3.192842871E-1,-4.906662948E0,5.985651794E0
1.174907933E1,5.673416523E0,-1.539395880E0,-6.351244472E0,8.654230241E0
1.175906733E1,8.284552653E0,-3.726565021E0,-7.266627252E0,1.163292616E1
1.176905433E1,1.101025562E1,-5.826225318E0,-6.684708842E0,1.413704221E1
1.177904233E1,1.222509653E1,-7.649044511E0,-5.790502338E0,1.553997376E1
1.178903033E1,1.183412246E1,-8.336971772E0,-3.453170560E0,1.488206772E1
1.179901733E1,6.328446178E0,-5.062438620E0,-2.397288543E0,8.451302159E0
1.180900533E1,3.768329636E0,-1.715889407E0,-2.011037557E0,4.603135536E0
1.181899333E1,1.309559667E0,1.026458827E0,-1.530302875E0,2.260617423E0
1.182898033E1,1.198236867E0,9.876999736E-1,-1.533679350E0,2.182543281E0
1.183896833E1,-2.504697509E0,4.816788320E0,-1.458076313E-1,5.431042183E0
1.184895533E1,-3.912849711E0,5.182682517E0,4.067454770E-1,6.506614543E0
1.185894333E1,-5.047453376E0,3.918193481E0,2.506850454E-1,6.394675029E0
1.186893133E1,-5.518562372E0,2.292894986E0,-5.582406950E-1,6.001960575E0
1.187891833E1,-5.607219025E0,9.410941565E-1,-1.400218991E0,5.855525308E0
1.188890633E1,-4.902683333E0,-3.095515966E-2,-1.585088070E0,5.152646531E0
1.189889433E1,-3.451771029E0,-1.182063176E0,-1.516399658E0,3.951134585E0
1.190888133E1,-1.270346777E0,-3.034107923E0,-3.078460515E0,4.505164921E0
1.191886933E1,1.599858721E0,-5.525918754E0,-4.320252707E0,7.194436007E0
1.192885633E1,3.532543004E0,-7.567909132E0,-8.608025301E-1,8.396016299E0
1.193884433E1,2.739875739E0,-7.412963764E0,3.910687118E0,8.817733528E0
1.194883233E1,-8.831692994E-2,-4.404857824E0,4.496364995E0,6.295067156E0
1.195881933E1,-3.090025431E0,-1.136580024E0,2.708756857E0,4.263500326E0
1.196880771E1,-5.271632701E0,9.085175639E-1,1.556152246E0,5.571097316E0
1.197879471E1,-6.705948268E0,2.058459646E0,1.928472826E0,7.275026167E0
1.198878271E1,-7.391048985E0,2.543641720E0,3.470784712E0,8.552430345E0
1.199877071E1,-7.359814328E0,2.736562414E0,4.499962202E0,9.050154729E0
1.200875771E1,-6.537454902E0,2.789645777E0,4.996751000E0,8.688380787E0
1.201874571E1,-5.164015281E0,2.504064256E0,5.132160235E0,7.699120749E0
1.202873371E1,-3.695785570E0,1.444756941E0,4.942486500E0,6.338322049E0
1.203872071E1,-2.187048689E0,1.235569292E-1,4.362217004E0,4.881330298E0
1.204870871E1,-5.769927156E-1,-1.259069837E0,3.247224315E0,3.530246904E0
1.205869571E1,8.099089497E-1,-2.454310298E0,1.682179624E0,3.083718507E0
1.206868371E1,1.549654235E0,-3.120524508E0,7.338888605E-1,3.560574997E0
1.207867171E1,1.496645717E0,-3.289696736E0,4.877852547E-1,3.646914788E0
1.208865871E1,1.256165525E0,-2.820640697E0,6.120420957E-1,3.147786730E0
1.209864671E1,1.029372495E0,-1.853060993E0,9.118652411E-1,2.307583367E0
1.210863471E1,6.467163768E-1,-6.803720731E-1,1.080997123E0,1.431678389E0
1.211862171E1,1.180358420E-1,2.260831779E-1,1.284170326E0,1.309251499E0
1.212860971E1,-5.048825133E-1,6.709042615E-1,1.794635760E0,1.981347116E0
1.213859671E1,-1.047140137E0,6.801621580E-1,2.293296690E0,2.611193738E0
1.214858471E1,-1.510071655E0,3.955752486E-1,2.607176396E0,3.038776882E0
1.215857271E1,-1.647894767E0,2.258253157E-1,2.689086531E0,3.161920399E0
1.216855971E1,-1.509789965E0,1.706995207E-1,2.291439468E0,2.749417921E0
1.217854771E1,-1.329331734E0,8.532958746E-2,1.556048166E0,2.048338324E0
1.218853471E1,-1.083297126E0,4.673679471E-3,8.768380073E-1,1.393699895E0
1.219852271E1,-8.254857861E-1,-3.822149456E-2,4.064154748E-1,9.209023856E-1
1.220851071E1,-4.917598996E-1,-9.603642404E-2,2.179057737E-1,5.463823934E-1
1.221849771E1,-8.650268510E-2,-8.002206981E-2,4.232331634E-1,4.393319437E-1
1.222848571E1,3.113254957E-1,7.599684656E-2,8.170899153E-1,8.776873103E-1
1.223847371E1,6.920448697E-1,2.593590975E-1,1.062138537E0,1.293959627E0
1.224846071E1,7.311659583E-1,2.711435759E-1,9.866626775E-1,1.257627026E0
1.225844871E1,1.006018716E0,4.204457957E-1,9.884671283E-1,1.471704993E0
1.226843571E1,1.101039624E0,5.124675214E-1,8.371142900E-1,1.475015779E0
1.227842371E1,1.131005143E0,6.089114964E-1,6.143739653E-1,1.423868397E0
1.228841171E1,9.808632629E-1,6.818180895E-1,3.921107733E-1,1.257266681E0
1.229839871E1,7.623816115E-1,7.350756991E-1,1.885165715E-1,1.075686061E0
1.230838671E1,5.560213843E-1,7.336606729E-1,6.098052068E-3,9.205731633E-1
1.231837471E1,4.105818352E-1,5.968299794E-1,3.338350832E-2,7.251882007E-1
1.232836171E1,3.163485463E-1,4.022931147E-1,1.210162958E-1,5.258907650E-1
1.233834971E1,1.753718846E-1,2.813586617E-1,5.758630335E-2,3.365028629E-1
1.234833671E1,-5.414638638E-2,2.738338798E-1,-6.221207220E-2,2.859845570E-1
1.235832471E1,-3.167875260E-1,3.194041550E-1,-3.964786434E-1,5.996404469E-1
1.236831271E1,-5.050737172E-1,5.111951673E-1,-8.219494631E-1,1.091797087E0
1.237829971E1,-7.760428999E-1,8.353893614E-1,-1.347393199E0,1.765102376E0
1.238828771E1,-9.588579977E-1,1.138486217E0,-1.825985461E0,2.355797620E0
1.239827571E1,-1.012770349E0,1.350078240E0,-2.072069625E0,2.672431021E0
1.240826271E1,-8.901064360E-1,1.377584712E0,-2.118587587E0,2.679261553E0
1.241825071E1,-4.813625269E-1,1.138258760E0,-1.972775571E0,2.327914590E0
1.242823771E1,2.192882017E-1,7.068909502E-1,-1.516475233E0,1.687447559E0
1.243822571E1,1.089324582E0,1.520205903E-1,-9.676848082E-1,1.464975151E0
1.244821371E1,1.936411298E0,-3.500143290E-1,-5.351296482E-1,2.039255375E0
1.245820071E1,2.641915873E0,-6.417506289E-1,-2.783070729E-1,2.732950453E0
1.246818871E1,3.182065283E0,-7.044076377E-1,-2.634486401E-1,3.269730076E0
1.247817571E1,3.693330617E0,-6.424745142E-1,-4.322938626E-1,3.773637838E0
1.248816371E1,4.023262391E0,-4.745728862E-1,-5.891900074E-1,4.093776320E0
1.249815171E1,4.107245073E0,-2.503046840E-1,-6.638973968E-1,4.168078007E0
1.250813871E1,3.974005154E0,1.984311104E-2,-7.194507694E-1,4.038653256E0
1.251812671E1,3.727067882E0,1.828155363E-1,-7.446535845E-1,3.805123582E0
1.252811471E1,3.384589737E0,3.552154273E-1,-7.581663537E-1,3.486608941E0
1.253810171E1,3.148540857E0,4.510471988E-1,-6.384533840E-1,3.244129440E0
1.254808971E1,3.141809250E0,4.065387779E-1,-5.090564020E-1,3.208641077E0
1.255807671E1,3.127819494E0,2.950019699E-1,-3.496963866E-1,3.161102420E0
1.256806471E1,3.074474761E0,7.990454078E-2,-1.535790195E-1,3.079345110E0
1.257805271E1,2.956366560E0,-2.070516604E-1,6.266314834E-3,2.963614835E0
1.258803971E1,2.791340885E0,-4.416483843E-1,1.195510018E-1,2.828591464E0
1.259802771E1,2.478142964E0,-5.671980447E-1,2.089204305E-1,2.550794762E0
1.260801571E1,2.167272382E0,-7.332268095E-1,2.565155965E-1,2.302279606E0
1.261800271E1,1.941261563E0,-1.093810565E0,8.300064147E-2,2.229754945E0
1.262799071E1,1.819831851E0,-1.650197693E0,-4.303426467E-1,2.494019885E0
1.263797771E1,1.822011693E0,-2.269289192E0,-1.056622420E0,3.096102548E0
1.264796571E1,1.983067255E0,-2.832488911E0,-1.524890838E0,3.779000031E0
1.265795371E1,2.119386463E0,-3.198993557E0,-1.766707119E0,4.224525157E0
1.266794071E1,2.203714130E0,-3.271592587E0,-1.694063505E0,4.292962285E0
1.267792871E1,1.933161415E0,-2.977488749E0,-1.772766443E0,3.968028877E0
1.268791671E1,1.494567909E0,-2.507531070E0,-2.207134020E0,3.659629201E0
1.269790371E1,8.635030666E-1,-1.892382933E0,-3.189933296E0,3.808204977E0
1.270789171E1,2.066394317E-1,-1.142396250E0,-4.199336380E0,4.356856101E0
1.271787871E1,-2.441211804E-1,-5.302781403E-1,-4.580581858E0,4.617631450E0
1.272786671E1,-3.990461558E-1,-4.494169950E-3,-4.064340543E0,4.083885660E0
1.273785471E1,-4.607826667E-1,3.440542620E-1,-2.803021867E0,2.861402731E0
1.274784171E1,-5.822712895E-1,6.261356395E-1,-1.755338232E0,1.952510692E0
1.275782971E1,-6.470885521E-1,8.006633323E-1,-1.491030636E0,1.811893408E0
1.276781671E1,-8.307292767E-1,6.298644090E-1,-7.866949189E-1,1.306035681E0
1.277780471E1,-5.809445563E-1,2.929431653E-1,5.308430179E-1,8.397062494E-1
1.278779271E1,-9.961316586E-3,-1.203415453E-1,1.997541014E0,2.001187502E0
1.279777971E1,3.255147877E-1,-8.843592077E-1,3.007225349E0,3.151421169E0
1.280776771E1,5.180274926E-1,-1.763144850E0,3.609328347E0,4.050220162E0
1.281775571E1,2.880329660E-1,-2.535564961E0,3.581327201E0,4.397494421E0
1.282774271E1,5.028371572E-2,-2.847494620E0,3.131965170E0,4.233197360E0
1.283773071E1,-3.122413158E-1,-2.935378856E0,3.136603181E0,4.307229177E0
1.284771771E1,-4.408698276E-1,-2.994866089E0,3.273464280E0,4.458604882E0
1.285770571E1,-2.341722161E-1,-3.064076073E0,1.744072109E0,3.533438315E0
1.286769371E1,-1.298757228E-1,-3.143801689E0,1.673415378E0,3.563800750E0
1.287768071E1,2.252771392E-1,-3.042873484E0,1.673366408E0,3.479940224E0
1.288766871E1,6.870449156E-1,-2.872163438E0,1.970748049E0,3.550380459E0
1.289765671E1,1.046443149E0,-2.542186348E0,2.281036394E0,3.572237635E0
1.290764371E1,9.692338818E-1,-2.149639957E0,2.790969586E0,3.653748417E0
1.291763171E1,4.813319752E-1,-1.796063504E0,2.589004711E0,3.187549212E0
1.292761871E1,-1.229406327E-1,-1.378639550E0,1.918145181E0,2.365384185E0
1.293760671E1,-8.343696070E-1,-9.854470414E-1,1.938576814E0,2.329239914E0
1.294759471E1,-1.466104540E0,-7.271731871E-1,2.016382789E0,2.596929518E0
1.295758171E1,-1.890539599E0,-3.480122423E-1,1.817363449E0,2.645385114E0
1.296756950E1,-1.966468618E0,8.510914743E-2,1.783967954E0,2.656460813E0
1.297755750E1,-1.935075209E0,5.251758599E-1,2.450220463E0,3.166055285E0
1.298754450E1,-2.018315294E0,8.779769719E-1,2.992892069E0,3.715083193E0
1.299753250E1,-2.171809383E0,1.118047859E0,2.981151153E0,3.854095121E0
1.300751950E1,-2.492179790E0,1.302752046E0,2.902424533E0,4.041310576E0
1.301750750E1,-2.847637000E0,1.586914448E0,2.796321835E0,4.294967957E0
1.302749550E1,-3.157814541E0,1.888904425E0,2.624383582E0,4.519639564E0
1.303748250E1,-3.413124734E0,2.310174093E0,2.436557274E0,4.787811206E0
1.304747050E1,-3.754971964E0,2.698061423E0,2.189657131E0,5.116048108E0
1.305745850E1,-4.065043963E0,3.032398197E0,2.048101595E0,5.469437027E0
1.306744550E1,-4.196334712E0,3.339208619E0,1.890443704E0,5.686239233E0
1.307743350E1,-4.147784111E0,3.601541026E0,1.955515906E0,5.830887861E0
1.308742050E1,-3.837046699E0,3.789511467E0,1.823180552E0,5.692742033E0
1.309740850E1,-3.215398213E0,3.878302606E0,1.207952893E0,5.180653141E0
1.310739650E1,-2.289210948E0,3.728669434E0,5.032508478E-1,4.404171197E0
1.311738350E1,-2.211674822E0,3.780852910E0,4.552446225E-1,4.403816744E0
1.312737150E1,-1.139288747E0,3.399264202E0,-5.538503131E-1,3.627633682E0
1.313735950E1,1.297713500E-1,2.898885798E0,-1.827391716E0,3.429247725E0
1.314734650E1,1.503622322E0,2.294000695E0,-2.694947196E0,3.845264576E0
1.315733450E1,2.790951752E0,1.607486706E0,-3.318187294E0,4.624261251E0
1.316732150E1,3.955838148E0,7.871819919E-1,-3.842009816E0,5.570399480E0
1.317730950E1,4.956671845E0,-1.986954045E-1,-3.722492728E0,6.202018038E0
1.318729750E1,5.332166001E0,-1.477906560E0,-3.221523756E0,6.402688292E0
1.319728450E1,5.018956386E0,-2.815413287E0,-2.619498526E0,6.322835416E0
1.320727250E1,4.226997219E0,-3.839991649E0,-2.477983043E0,6.225226206E0
1.321726050E1,3.087958440E0,-4.363239682E0,-2.287205938E0,5.814177401E0
1.322724750E1,2.033776209E0,-3.857874774E0,-1.917071925E0,4.763885830E0
1.323723550E1,1.158554738E0,-2.622207248E0,-1.494574633E0,3.232951170E0
1.324722250E1,7.370874336E-1,-1.082882119E0,-1.470811256E0,1.969572878E0
1.325721050E1,1.107516439E0,4.573902583E-1,-1.545139308E0,1.955314295E0
1.326719850E1,1.582286376E0,1.602492599E0,4.167515248E-1,2.290260802E0
1.327718550E1,1.290117675E0,2.401489475E0,3.771712835E0,4.653748277E0
1.328717350E1,1.135590675E-1,2.700576895E0,5.890389154E0,6.480948666E0
1.329716150E1,-1.500152292E0,2.399216663E0,4.943678162E0,5.696196210E0
1.330714850E1,-2.442226442E0,1.838039496E0,5.579699689E-1,3.107119191E0
1.331713650E1,-2.480990851E0,3.245958978E-1,-4.825273215E0,5.435433717E0
1.332712350E1,-1.403366255E0,-2.564101127E0,-6.151864944E0,6.810983315E0
1.333711150E1,1.161227793E-1,-6.138053820E0,-4.129356026E0,7.398700588E0
1.334709950E1,1.160459468E0,-9.032265354E0,-1.150593169E0,9.178907792E0
1.335708650E1,1.244291876E0,-8.784509472E0,1.922800734E0,9.078162347E0
1.336707450E1,-5.602158844E-1,-5.086856008E0,3.948587893E0,6.463845004E0
1.337706250E1,-2.759443154E0,-1.492567284E0,6.181842449E0,6.932348785E0
1.338704950E1,-3.984807885E0,9.619681317E-1,7.057365929E0,8.161525006E0
1.339703750E1,-4.710803151E0,2.803851587E0,6.152484748E0,8.240529026E0
1.340702450E1,-4.445475508E0,4.065460285E0,5.102858083E0,7.894895847E0
1.341701250E1,-4.040364035E0,4.166690791E0,5.129833628E0,7.746034258E0
1.342700050E1,-3.272526972E0,3.476678413E0,5.519158788E0,7.297796879E0
1.343698750E1,-1.871274631E0,2.387932706E0,5.220196499E0,6.037743191E0
1.344697550E1,-3.935468495E-1,1.051590160E0,3.929400547E0,4.086674644E0
1.345696250E1,1.248131012E0,-2.215369678E-1,2.396958907E0,2.711516485E0
1.346695050E1,2.889495755E0,-1.237550329E0,1.267064881E0,3.389125248E0
1.347693850E1,4.136004603E0,-1.818929626E0,5.924948537E-1,4.556982468E0
1.348692550E1,4.680064338E0,-2.255750549E0,5.548820543E-1,5.224873859E0
1.349691350E1,4.522473398E0,-2.479633420E0,1.114657205E0,5.276723246E0
1.350690150E1,3.798373215E0,-2.118425766E0,2.022672054E0,4.796516345E0
1.351688850E1,1.387619703E0,-4.090706223E-1,3.159250617E0,3.474721813E0
1.352687650E1,-5.442719892E-2,5.784884334E-2,3.012875806E0,3.013922599E0
1.353686450E1,-1.341812470E0,2.741297489E-1,2.300161321E0,2.677003909E0
1.354685150E1,-2.279388503E0,2.399235374E-1,1.449368055E0,2.711797007E0
1.355683950E1,-2.602275259E0,1.458494389E-1,9.253709936E-1,2.765758496E0
1.356682650E1,-2.228161193E0,2.673931718E-3,8.197248168E-1,2.374164743E0
1.357681450E1,-1.305486789E0,-1.082553506E-1,1.188621998E0,1.768851953E0
1.358680250E1,-2.538912199E-1,-2.181309646E-1,1.763796229E0,1.795276861E0
1.359678950E1,6.571828929E-1,-2.703501087E-1,1.907426065E0,2.035498153E0
1.360677750E1,1.166447163E0,-2.214247012E-1,1.690950594E0,2.066141765E0
1.361676450E1,1.323305886E0,-4.532469213E-2,1.492804827E0,1.995409494E0
1.362675250E1,1.252206814E0,1.571070832E-1,1.196456097E0,1.739026087E0
1.363674050E1,9.529556720E-1,2.790326393E-1,7.986513054E-1,1.274294956E0
1.364672750E1,5.465818586E-1,3.110420519E-1,1.869683750E-1,6.560915024E-1
1.365671550E1,1.977826542E-1,2.956831706E-1,-3.228854410E-1,4.804180718E-1
1.366670350E1,5.513902433E-2,3.593833226E-1,-1.300771594E-2,3.638212270E-1
1.367669050E1,2.647462834E-1,5.465404165E-1,7.581815565E-1,9.714094369E-1
1.368667850E1,5.007543790E-1,5.827580702E-1,1.434358252E0,1.627189452E0
1.369666650E1,4.949191502E-1,4.517833632E-1,1.559102897E0,1.697013558E0
1.370665350E1,4.340810640E-1,2.753746212E-1,1.299092274E0,1.397103535E0
1.371664150E1,4.389482132E-1,1.531660599E-1,9.041025507E-1,1.016630119E0
1.372662850E1,5.067721872E-1,8.652768195E-2,3.938487120E-1,6.476279004E-1
1.373661650E1,6.689303876E-1,3.164045334E-2,-3.256065890E-2,6.704693716E-1
1.374660450E1,9.977537493E-1,9.803968012E-2,-2.705331266E-1,1.038418266E0
1.375659150E1,1.470717701E0,2.199436015E-1,-3.831914306E-1,1.535650161E0
1.376657950E1,1.954919928E0,2.744846749E-1,-4.473247882E-1,2.024142591E0
1.377656650E1,2.291271653E0,2.886103785E-1,-4.685338088E-1,2.356426462E0
1.378655450E1,2.494944938E0,2.958755440E-1,-4.035888577E-1,2.544636821E0
1.379654250E1,2.618800660E0,3.695042682E-1,-3.118192200E-1,2.663058679E0
1.380652950E1,2.629463643E0,5.435858184E-1,-2.531891886E-1,2.696974111E0
1.381651750E1,2.669027658E0,5.502528137E-1,-3.476777816E-1,2.747247102E0
1.382650550E1,2.339164150E0,1.104240244E0,1.045739802E-1,2.588816555E0
1.383649250E1,1.945493778E0,1.322723211E0,-1.983022889E-2,2.352644463E0
1.384648050E1,1.410604231E0,1.426386743E0,-2.664564478E-1,2.023705136E0
1.385646850E1,8.125018975E-1,1.321684746E0,-6.427984500E-1,1.679345035E0
1.386645550E1,3.670058626E-1,1.032572091E0,-1.189331265E0,1.617222089E0
1.387644350E1,-7.287348323E-3,4.445538658E-1,-1.652006237E0,1.710791002E0
1.388643050E1,-2.323402103E-1,-3.421083087E-1,-1.912671018E0,1.956867520E0
1.389641850E1,-3.102323222E-1,-1.014260366E0,-1.982451105E0,2.248350632E0
1.390640650E1,-1.096256456E-1,-1.443751804E0,-1.764780900E0,2.282737103E0
1.391639350E1,4.183608613E-1,-1.470226243E0,-1.167866721E0,1.923669330E0
1.392638150E1,1.024851208E0,-1.083523559E0,-4.643397107E-1,1.562035425E0
1.393636950E1,1.615192460E0,-5.419053286E-1,5.110232592E-2,1.704441115E0
1.394635650E1,2.236341886E0,-1.058509755E-1,3.850724798E-1,2.271719673E0
1.395634450E1,2.782144676E0,1.574432981E-1,4.342598426E-1,2.820230310E0
1.396633150E1,2.805292926E0,1.572175956E-1,4.234571117E-1,2.841425997E0
1.397631988E1,3.083198514E0,2.672452372E-1,1.415915696E-1,3.097996331E0
1.398630787E1,3.179361531E0,3.464539593E-1,-3.244812193E-1,3.214600776E0
1.399629487E1,3.270412034E0,3.501534927E-1,-6.950064113E-1,3.361731139E0
1.400628288E1,3.497658808E0,2.924543381E-2,-6.265560544E-1,3.553455349E0
1.401627087E1,3.830627918E0,-6.276950920E-1,6.792005103E-2,3.882309172E0
1.402625788E1,4.121085140E0,-1.351845269E0,1.056286059E0,4.463918525E0
1.403624587E1,4.380748877E0,-1.892262481E0,2.011541002E0,5.178601667E0
1.404623287E1,4.576117508E0,-2.170592285E0,2.603307293E0,5.694693247E0
1.405622088E1,4.471513452E0,-2.066301346E0,2.323664789E0,5.446416423E0
1.406620887E1,3.927298180E0,-1.808820375E0,1.292675539E0,4.512927231E0
1.407619588E1,3.008016770E0,-1.802002521E0,-1.897082341E-1,3.511604646E0
1.408618387E1,1.968238570E0,-1.860700965E0,-1.646537336E0,3.169740738E0
1.409617188E1,1.052417687E0,-1.812166736E0,-2.275600677E0,3.093523833E0
1.410615888E1,3.852590060E-1,-1.595658959E0,-2.032307974E0,2.612437121E0
1.411614687E1,-6.541704074E-2,-1.203897264E0,-1.423066109E0,1.865144810E0
1.412613388E1,-2.682527125E-1,-7.429179847E-1,-7.964492440E-1,1.121703191E0
1.413612187E1,-1.674102426E-1,-3.093077677E-1,-3.302881622E-1,4.824808334E-1
1.414610988E1,1.077112672E-1,1.473486650E-1,-3.450441957E-2,1.857522574E-1
1.415609688E1,2.282776380E-1,7.609496284E-1,1.818623670E-1,8.150024156E-1
1.416608487E1,5.716955768E-1,1.261042687E0,-1.824682117E-2,1.384701209E0
1.417607288E1,1.334668780E0,1.708604946E0,-1.131518821E-1,2.171053883E0
1.418605987E1,2.035374838E0,1.855986940E0,1.517937914E-1,2.758709772E0
1.419604788E1,2.526023474E0,1.579666239E0,5.896623163E-1,3.037077817E0
1.420603488E1,2.980765529E0,8.836715752E-1,1.219081460E0,3.339460764E0
1.421602287E1,3.322989320E0,7.732357979E-3,1.962781802E0,3.859382102E0
1.422601088E1,3.234748111E0,-1.014203063E0,2.652525061E0,4.304427070E0
1.423599787E1,2.856950153E0,-2.082603384E0,3.224864855E0,4.785306089E0
1.424598588E1,2.416591225E0,-2.910706530E0,3.868612893E0,5.410941819E0
1.425597387E1,1.881645399E0,-3.383149275E0,4.318157942E0,5.799377246E0
1.426596088E1,1.377047207E0,-3.384692355E0,4.583683805E0,5.861958596E0
1.427594888E1,1.037479075E0,-2.956907135E0,4.792651306E0,5.726182775E0
1.428593587E1,7.750212452E-1,-2.287237805E0,4.711961777E0,5.294780306E0
1.429592388E1,5.112613870E-1,-1.702371814E0,4.271414423E0,4.626493183E0
1.430591187E1,3.133142799E-1,-1.314071086E0,4.054118733E0,4.273268931E0
1.431589888E1,3.224609332E-1,-9.999756181E-1,3.730785249E0,3.875911617E0
1.432588688E1,3.925437596E-1,-6.489701861E-1,3.360160947E0,3.444696575E0
1.433587487E1,6.628763267E-1,-3.346501851E-1,3.050498253E0,3.139575666E0
1.434586188E1,1.052947153E0,-5.722436070E-2,2.728789126E0,2.925450807E0
1.435584987E1,1.292375577E0,1.768431902E-2,2.311294712E0,2.648137197E0
1.436583688E1,1.475174303E0,-1.443683392E-1,1.948722318E0,2.448366826E0
1.437582488E1,1.300457306E0,-2.008091730E-1,1.886138984E0,2.299789946E0
1.438581287E1,1.086543061E0,-2.468308532E-1,1.999383764E0,2.288894215E0
1.439579988E1,9.443417001E-1,-2.917754763E-1,2.901743625E0,3.065457591E0
1.440578787E1,6.722748488E-1,-2.520243502E-1,3.378420340E0,3.453866491E0
1.441577588E1,1.536379302E-1,-2.535095429E-1,3.426477143E0,3.439275696E0
1.442576288E1,-5.255173373E-1,-3.258121186E-1,3.250738492E0,3.309021419E0
1.443575087E1,-1.137864658E0,-3.679471546E-1,3.212490977E0,3.427859298E0
1.444573888E1,-1.662116950E0,-3.615228188E-1,3.090291479E0,3.527496695E0
1.445572587E1,-2.120736293E0,-3.641441256E-1,2.792997108E0,3.525756120E0
1.446571388E1,-2.464744654E0,-3.103865790E-1,2.445638000E0,3.486036613E0
1.447570088E1,-2.701150214E0,-1.462751162E-1,1.924622434E0,3.319906686E0
1.448568888E1,-2.948106198E0,1.402922451E-2,1.408568231E0,3.267352358E0
1.449567688E1,-3.095073332E0,1.998882365E-1,1.052980920E0,3.275393573E0
1.450566387E1,-3.103051273E0,4.176403016E-1,6.113009611E-1,3.190147252E0
1.451565188E1,-2.989017119E0,5.122248620E-1,3.115487131E-1,3.048550516E0
1.452563987E1,-2.793197083E0,5.811810762E-1,3.696285215E-1,2.876864027E0
1.453562688E1,-2.569867944E0,7.177603394E-1,4.107508197E-1,2.699651346E0
1.454561488E1,-2.439711847E0,9.695373523E-1,3.283176506E-1,2.645749242E0
1.455560187E1,-2.385085112E0,1.331448426E0,2.783683956E-1,2.745701161E0
1.456558988E1,-2.294440405E0,1.749607961E0,3.711835885E-1,2.909185805E0
1.457557787E1,-2.140056955E0,2.096505724E0,5.290405771E-1,3.042213660E0
1.458556488E1,-1.913287607E0,2.336090707E0,5.907930216E-1,3.076853206E0
1.459555288E1,-1.663296041E0,2.531106459E0,5.065790829E-1,3.070777751E0
1.460554087E1,-1.384679431E0,2.595919336E0,4.364627811E-1,2.974329182E0
1.461552788E1,-9.428076831E-1,2.590709467E0,2.881817776E-1,2.771950686E0
1.462551587E1,-8.823460114E-1,2.608542305E0,2.915436342E-1,2.769119920E0
1.463550288E1,1.452100459E-1,2.381439958E0,-4.160305631E-1,2.421863675E0
1.464549088E1,7.593612322E-1,2.069787456E0,-7.144601709E-1,2.317564008E0
1.465547887E1,1.352546934E0,1.530680020E0,-8.907157159E-1,2.228393821E0
1.466546588E1,2.047508249E0,8.060977346E-1,-1.479974720E0,2.651868919E0
1.467545387E1,2.888958396E0,-2.631802529E-1,-2.599166003E0,3.894997865E0
1.468544188E1,3.952378058E0,-1.674072459E0,-3.588034542E0,5.594443921E0
1.469542888E1,5.282503844E0,-3.167751299E0,-3.553476036E0,7.111025741E0
1.470541688E1,6.435073079E0,-4.383718386E0,-2.408516367E0,8.150343767E0
1.471540488E1,6.778591152E0,-4.892500407E0,-1.399083170E0,8.476042234E0
1.472539187E1,6.023870562E0,-4.409588222E0,-1.342023700E0,7.585018949E0
1.473537988E1,4.682057654E0,-3.141541740E0,-1.606814861E0,5.862832283E0
1.474536687E1,3.200044009E0,-1.444713086E0,-1.772610322E0,3.933144406E0
1.475535488E1,1.710869865E0,4.645320475E-2,-1.854990866E0,2.523930409E0
1.476534288E1,4.065022328E-1,1.200859635E0,-1.762446692E0,2.171065699E0
1.477532987E1,-6.153884572E-1,1.900455015E0,-1.200879808E0,2.330781957E0
1.478531788E1,-6.900372282E-1,1.882601126E0,-1.216890947E0,2.345455596E0
1.479530587E1,-1.747420517E0,1.767584640E0,9.791291249E-1,2.671428039E0
1.480529288E1,-1.906196396E0,1.118712103E0,2.017034461E0,2.992244891E0
1.481528088E1,-1.904619402E0,1.126297111E0,1.991798463E0,2.977143155E0
1.482526787E1,-2.055614098E0,3.353343093E-1,2.339554013E0,3.132333220E0
1.483525588E1,-2.021122835E0,-4.352749193E-1,1.600268026E0,2.614432926E0
1.484524387E1,-1.564028445E0,-1.322454239E0,-5.995585826E-1,2.134136989E0
1.485523088E1,-9.927519679E-1,-2.579656475E0,-3.444169356E0,4.416161971E0
1.486521888E1,-6.827437037E-1,-3.929275709E0,-3.801039253E0,5.509378001E0
1.487520688E1,-9.820702744E-1,-4.431765541E0,-6.682236055E-1,4.588194702E0
1.488519388E1,-2.061097324E0,-3.528982342E0,3.099830042E0,5.129403946E0
1.489518187E1,-3.256438650E0,-1.559707938E0,5.348982593E0,6.453580116E0
1.490516988E1,-4.270592597E0,1.035161823E-1,6.372948167E0,7.672232079E0
1.491515688E1,-4.795710862E0,1.514687301E0,6.006721848E0,7.834144985E0
1.492514488E1,-4.786393908E0,2.505352982E0,4.636393239E0,7.119164451E0
1.493513188E1,-4.157535220E0,2.620795146E0,3.737247884E0,6.174195336E0
1.494511987E1,-3.391263456E0,1.737872599E0,3.718277470E0,5.324139024E0
1.495510788E1,-2.563762281E0,5.087200409E-1,3.473139678E0,4.346765733E0
1.496509487E1,-1.440054464E0,-4.113709170E-1,2.662888374E0,3.055152596E0
1.497508246E1,-1.876712103E-1,-1.177238638E0,1.450729433E0,1.877691983E0
1.498507046E1,7.964518753E-1,-1.631902925E0,4.236508007E-1,1.864650838E0
1.499505746E1,1.553846981E0,-1.693428497E0,1.864770627E-1,2.305843492E0
1.500504546E1,2.213314674E0,-1.432608765E0,4.455581251E-1,2.673883274E0
1.501503246E1,2.550649023E0,-9.615260822E-1,7.667664385E-1,2.831655632E0
1.502502046E1,2.720382876E0,-4.039508003E-1,1.119622660E0,2.969379421E0
1.503500846E1,2.595628729E0,6.816040814E-2,1.665114086E0,3.084564680E0
1.504499546E1,2.287982740E0,4.693279338E-1,2.171672412E0,3.189246744E0
1.505498346E1,2.015099910E0,7.848185474E-1,2.458623204E0,3.274354266E0
1.506497146E1,1.760031646E0,9.788513821E-1,2.384230395E0,3.120963954E0
1.507495846E1,1.511081323E0,9.037748873E-1,2.007208946E0,2.670030630E0
1.508494646E1,1.325752361E0,6.427709681E-1,1.534419169E0,2.127255515E0
1.509493346E1,1.174750502E0,4.721264112E-1,1.022183343E0,1.627206464E0
1.510492146E1,1.139744976E0,2.601309299E-1,7.076089883E-1,1.366527421E0
1.511490946E1,1.108304497E0,4.187658906E-2,6.687764597E-1,1.295127199E0
1.512489646E1,9.603101537E-1,-1.421510750E-1,6.512899227E-1,1.169008590E0
1.513488446E1,6.788962358E-1,-2.510771012E-1,8.059989166E-1,1.083316234E0
1.514487246E1,4.755410390E-1,-1.730705667E-1,9.086842096E-1,1.040096002E0
1.515485946E1,3.447566588E-1,1.130500674E-2,1.010197574E0,1.067466204E0
1.516484746E1,2.053895894E-1,1.740961683E-1,1.094316934E0,1.126953376E0
1.517483546E1,3.775488675E-2,2.914182115E-1,1.165540553E0,1.202012806E0
1.518482246E1,-1.761592121E-1,3.125026864E-1,1.146834286E0,1.201631756E0
1.519481046E1,-3.510704823E-1,3.009246147E-1,1.028808312E0,1.127941776E0
1.520479746E1,-5.501104340E-1,2.800091243E-1,9.392932141E-1,1.123965454E0
1.521478546E1,-8.169248776E-1,2.590831089E-1,9.170176613E-1,1.255154056E0
1.522477346E1,-1.067373111E0,2.855920458E-1,8.245195337E-1,1.378651746E0
1.523476046E1,-1.513190121E0,2.715686685E-1,7.011139011E-1,1.689690678E0
1.524474846E1,-1.555103694E0,1.921085161E-1,5.392489020E-1,1.657118752E0
1.525473646E1,-1.543000981E0,3.490787745E-2,3.776856558E-1,1.588935820E0
1.526472346E1,-1.393600820E0,-1.428568339E-1,2.612945259E-1,1.425063560E0
1.527471146E1,-1.251578238E0,-2.952908224E-1,1.580291891E-1,1.295614904E0
1.528469946E1,-1.111640334E0,-3.150795543E-1,-2.070147316E-2,1.155615814E0
1.529468646E1,-8.428132787E-1,-2.489569008E-1,-1.998882365E-1,9.012597120E-1
1.530467446E1,-5.014876199E-1,-1.230312645E-1,-2.073773503E-1,5.564457659E-1
1.531466146E1,-4.613285773E-1,-1.181704742E-1,-2.805037987E-1,5.526940368E-1
1.532464946E1,1.187619200E-1,2.174468404E-1,1.072397623E-3,2.477673749E-1
1.533463746E1,3.691563588E-1,4.660184097E-1,3.512305498E-2,5.955528561E-1
1.534462446E1,6.008201925E-1,7.389904100E-1,6.705177605E-2,9.547710042E-1
1.535461246E1,7.666608232E-1,9.213469398E-1,9.504122794E-2,1.202365101E0
1.536460046E1,8.540026568E-1,9.832420564E-1,7.521682799E-2,1.304508739E0
1.537458746E1,9.087815657E-1,9.127240509E-1,-8.203120966E-2,1.290611579E0
1.538457546E1,8.693352988E-1,7.755138731E-1,-3.202659615E-1,1.208195313E0
1.539456246E1,8.170926927E-1,6.641337705E-1,-6.195972830E-1,1.221726208E0
1.540455046E1,7.945970654E-1,5.674407041E-1,-1.285078252E0,1.613939145E0
1.541453846E1,8.619985049E-1,4.210293478E-1,-2.233316537E0,2.430639810E0
1.542452546E1,1.053415442E0,2.122188449E-1,-3.237802697E0,3.411464090E0
1.543451346E1,1.334128205E0,-8.565410793E-2,-3.945757256E0,4.166081494E0
1.544450146E1,1.634439155E0,-4.550987345E-1,-3.796118821E0,4.158007252E0
1.545448846E1,1.993237902E0,-7.336086327E-1,-2.521342778E0,3.296717817E0
1.546447646E1,2.217391645E0,-7.235701329E-1,-8.431088555E-1,2.480163701E0
1.547446446E1,2.316497857E0,-5.400880140E-1,4.387247765E-1,2.418746951E0
1.548445146E1,2.316390561E0,-3.682067710E-1,1.051549741E0,2.570408200E0
1.549443946E1,2.240552174E0,-2.507250988E-1,9.803488541E-1,2.458459069E0
1.550442646E1,2.075983751E0,-1.170922476E-1,3.115145069E-1,2.102489100E0
1.551441446E1,1.803203247E0,8.972435474E-2,-6.617669638E-1,1.922895713E0
1.552440246E1,1.557990172E0,3.639160842E-1,-1.322457163E0,2.075731495E0
1.553438946E1,1.435241620E0,6.698470849E-1,-1.256804187E0,2.021922449E0
1.554437746E1,1.506198167E0,8.326037478E-1,-5.351022394E-1,1.802275319E0
1.555436546E1,1.788493553E0,7.182848346E-1,3.078319305E-1,1.951769143E0
1.556435246E1,2.232370749E0,3.257910687E-1,8.621817420E-1,2.415155552E0
1.557434046E1,2.750479665E0,-2.137016988E-1,9.688681385E-1,2.923954902E0
1.558432846E1,3.144503647E0,-8.053685868E-1,5.221146964E-1,3.287723453E0
1.559431546E1,3.354660179E0,-1.247685308E0,-1.027104360E-1,3.580644212E0
1.560430346E1,3.338400241E0,-1.524679608E0,-5.711718124E-1,3.714269958E0
1.561429046E1,3.071867780E0,-1.586507481E0,-8.115065552E-1,3.551326588E0
1.562427846E1,2.638415145E0,-1.451185369E0,-8.776653153E-1,3.136474113E0
1.563426646E1,2.268925349E0,-1.417738127E0,-7.520039731E-1,2.779121014E0
1.564425346E1,2.259635731E0,-1.416993776E0,-7.467743696E-1,2.769746732E0
1.565424146E1,2.168551899E0,-1.554119754E0,-4.894084418E-1,2.712457589E0
1.566422946E1,2.512399170E0,-1.751576133E0,-7.819235909E-1,3.160944960E0
1.567421646E1,2.491712598E0,-1.748326836E0,-7.586130810E-1,3.137000510E0
1.568420446E1,3.010144279E0,-1.872647411E0,-1.158139878E0,3.729485874E0
1.569419146E1,3.567593846E0,-1.853181446E0,-1.445509331E0,4.272177963E0
1.570417946E1,4.150270640E0,-1.728299537E0,-1.444933380E0,4.722245032E0
1.571416746E1,4.576081256E0,-1.445194312E0,-1.237781440E0,4.955926669E0
1.572415446E1,4.733141269E0,-1.087336528E0,-1.081747613E0,4.975450220E0
1.573414246E1,4.462116391E0,-7.515923291E-1,-1.043249838E0,4.643677847E0
1.574413046E1,3.635287354E0,-3.629781908E-1,-1.037070939E0,3.797707656E0
1.575411746E1,2.462482074E0,9.722808659E-2,-1.157318783E0,2.722619700E0
1.576410546E1,1.196608710E0,3.488326067E-1,-1.661938902E0,2.077401624E0
1.577409346E1,1.521658936E-1,3.859694427E-1,-2.364463736E0,2.400586518E0
1.578408046E1,-4.904861567E-1,3.581980920E-1,-2.720657403E0,2.787626095E0
1.579406846E1,-7.596543239E-1,3.052696806E-1,-2.309629717E0,2.450439492E0
1.580405546E1,-8.009725770E-1,3.117285150E-1,-1.529484850E0,1.754438839E0
1.581404346E1,-8.050315679E-1,2.845301914E-1,-9.854148817E-1,1.303869527E0
1.582403146E1,-8.708360597E-1,1.440958589E-1,-5.071488941E-1,1.017997574E0
1.583401846E1,-8.482808639E-1,-1.643324876E-1,-8.716089886E-2,8.684368790E-1
1.584400646E1,-7.093679769E-1,-6.414530057E-1,4.387516737E-1,1.052220469E0
1.585399446E1,-8.294104372E-1,-1.365034833E0,1.121377848E0,1.951596794E0
1.586398146E1,-8.651832640E-1,-2.001413625E0,1.539852548E0,2.669334083E0
1.587396946E1,-1.017601904E0,-2.487880332E0,1.606692070E0,3.131536618E0
1.588395746E1,-1.237658941E0,-2.880184064E0,1.590121353E0,3.515074084E0
1.589394446E1,-1.535893106E0,-3.103750600E0,1.448276964E0,3.753630454E0
1.590393246E1,-1.620822597E0,-2.929434577E0,1.451294128E0,3.648959780E0
1.591391946E1,-1.422015803E0,-2.677652301E0,1.291399677E0,3.295400418E0
1.592390746E1,-7.665193936E-1,-2.425068957E0,1.286214366E0,2.850062951E0
1.593389546E1,-5.325433517E-1,-2.389098641E0,1.410641653E0,2.825120282E0
1.594388246E1,-1.285036737E-1,-2.375871654E0,1.409076207E0,2.765280288E0
1.595387046E1,3.127225417E-1,-2.324278747E0,1.798726619E0,2.955585311E0
1.596385846E1,8.080904657E-1,-2.135760421E0,2.232754765E0,3.193693257E0
1.597384600E1,1.401910591E0,-1.747888294E0,2.695007422E0,3.504786983E0
1.598383400E1,1.640717895E0,-1.440520048E0,2.834574320E0,3.577969368E0
1.599382200E1,1.370320131E0,-1.350295756E0,2.171515268E0,2.901129858E0
1.600380900E1,7.418228012E-1,-1.093877808E0,2.134859365E0,2.510875194E0
1.601379700E1,-4.135358486E-1,-1.109968176E0,1.788318282E0,2.145022967E0
1.602378400E1,-1.336438732E0,-8.940328413E-1,1.466501566E0,2.176232995E0
1.603377200E1,-1.976379063E0,-6.228769863E-1,1.612453039E0,2.625653204E0
1.604376000E1,-2.384772578E0,-3.885059649E-1,1.659066457E0,2.930968892E0
1.605374700E1,-2.500740699E0,-9.925648570E-3,1.779435777E0,3.069233495E0
1.606373500E1,-2.558914062E0,4.333868533E-1,2.124095518E0,3.353751200E0
1.607372300E1,-2.977613587E0,1.466520862E0,2.447566997E0,4.124009010E0
1.608371000E1,-3.210156476E0,1.922774422E0,2.508642626E0,4.505047603E0
1.609369800E1,-3.471813822E0,2.344052276E0,2.433222022E0,4.844444416E0
1.610368600E1,-3.680157425E0,2.833884056E0,2.210654483E0,5.144069474E0
1.611367300E1,-3.814479078E0,3.176325656E0,2.126457209E0,5.400103293E0
1.612366100E1,-3.996878585E0,3.429734627E0,2.023494465E0,5.642042882E0
1.613364800E1,-4.258877700E0,3.633686678E0,1.933126332E0,5.922727037E0
1.614363600E1,-4.386041484E0,3.868995008E0,1.922817399E0,6.156598820E0
1.615362400E1,-4.375030885E0,3.880052678E0,1.905637987E0,6.150378864E0
1.616361100E1,-4.001172488E0,3.981997713E0,1.898652026E0,5.955717134E0
1.617359900E1,-3.638285514E0,3.863914363E0,1.735836014E0,5.583912817E0
1.618358700E1,-3.166547650E0,3.750087200E0,1.436743039E0,5.114138108E0
1.619357400E1,-2.554914859E0,3.535704301E0,1.037819383E0,4.483956279E0
1.620356200E1,-1.919405841E0,3.256596817E0,4.274510524E-1,3.804241845E0
1.621355000E1,-1.181517923E0,2.906988870E0,-4.412706542E-1,3.168799249E0
1.622353700E1,-2.524921274E-1,2.480036293E0,-1.424937218E0,2.871372209E0
1.623352500E1,9.096013454E-1,2.043200167E0,-2.397441448E0,3.278683734E0
1.624351200E1,2.264185157E0,1.463113689E0,-3.271779990E0,4.239313671E0
1.625350000E1,3.772078871E0,4.521008670E-1,-4.103985250E0,5.592465390E0
1.626348800E1,5.188180654E0,-1.040655282E0,-5.022670537E0,7.295711154E0
1.627347500E1,6.643952579E0,-3.000269501E0,-5.757959075E0,9.289661763E0
1.628346300E1,8.053246157E0,-5.048950848E0,-5.447866611E0,1.095563458E1
1.629345100E1,8.764075792E0,-6.709553661E0,-3.492476713E0,1.157689632E1
1.630343800E1,8.075826350E0,-7.388601340E0,-1.592828614E0,1.106108060E1
1.631342600E1,8.030777646E0,-7.393399565E0,-1.614223576E0,1.103455774E1
1.632341400E1,4.743085921E0,-4.317415638E0,-2.660251280E0,6.943621441E0
1.633340100E1,3.187092719E0,-1.933191821E0,-2.928864473E0,4.740573564E0
1.634338900E1,1.742076454E0,1.242656118E-1,-2.733780894E0,3.244045359E0
1.635337600E1,4.106666198E-1,1.663467949E0,-2.294889764E0,2.863964336E0
1.636336400E1,-6.329558319E-1,2.363565604E0,-1.644292882E0,2.948011963E0
1.637335200E1,-1.431010721E0,2.275338721E0,-1.067427928E0,2.892120392E0
1.638333900E1,-2.009896765E0,1.482594273E0,-3.446995023E-1,2.521227585E0
1.639332700E1,-2.435262116E0,7.137579203E-2,2.117791343E-1,2.445495140E0
1.640331500E1,-2.742313151E0,-1.916206829E0,2.699516210E-1,3.356337871E0
1.641330200E1,-2.505843564E0,-4.141577584E0,-4.371996765E-1,4.860355996E0
1.642329000E1,-1.856928341E0,-5.864080192E0,-1.203594378E0,6.267715596E0
1.643327800E1,-9.943736932E-1,-6.302447119E0,-2.573311369E-1,6.385596138E0
1.644326500E1,-1.631915496E-1,-4.938247853E0,2.562307202E0,5.565819035E0
1.645325300E1,-7.287560284E-2,-2.679321097E0,4.455462552E0,5.199540263E0
1.646324000E1,-9.509997784E-1,-2.790583670E-1,4.598648000E0,4.704236131E0
1.647322800E1,-2.359367449E0,1.706254365E0,3.545736954E0,4.588046345E0
1.648321600E1,-3.814753312E0,3.207230530E0,2.086964529E0,5.403155694E0
1.649320300E1,-5.003517398E0,4.246267303E0,1.504615764E0,6.732743939E0
