"Time (s)","Linear Acceleration x (m/s^2)","Linear Acceleration y (m/s^2)","Linear Acceleration z (m/s^2)","Absolute acceleration (m/s^2)"
5.079166731E-3,-1.578292143E-1,2.683380818E-1,-8.757889438E-1,9.294738625E-1
1.511116675E-2,4.036186785E-3,3.290926990E-1,-3.988333172E-1,5.170941019E-1
2.514216676E-2,2.338257685E-1,2.315319058E-1,1.013755167E-1,3.443232621E-1
3.517416667E-2,3.303339167E-1,1.543825731E-1,4.400520945E-1,5.714895635E-1
4.520616669E-2,3.288488701E-1,1.523717156E-1,6.996509278E-1,7.879531330E-1
5.523716670E-2,2.667727822E-1,1.143209597E-1,8.176664507E-1,8.676493669E-1
6.526916672E-2,1.792770937E-1,5.212909698E-2,8.527240169E-1,8.729238043E-1
7.530116674E-2,9.929039955E-2,-2.768773556E-2,8.577251405E-1,8.638967593E-1
8.533216675E-2,7.930812478E-2,-7.659940213E-2,7.656005037E-1,7.734994365E-1
9.536416677E-2,5.273779213E-2,-6.942633033E-2,5.138802087E-1,5.212237130E-1
1.053961667E-1,3.349679813E-2,-3.757800847E-2,1.968406677E-1,2.031757630E-1
1.154271667E-1,-1.065285216E-1,1.042733967E-2,-2.028691471E-2,1.089431698E-1
1.254591667E-1,-9.268480003E-2,4.769983113E-2,-5.023109078E-2,1.157104512E-1
1.354911667E-1,1.880742297E-2,5.703578800E-2,2.666798115E-2,6.571134978E-2
1.455221667E-1,5.224311769E-2,3.628285021E-2,6.600921750E-2,9.166790802E-2
1.555541668E-1,1.040367307E-1,1.265278995E-2,9.709710896E-2,1.428691114E-1
1.655861667E-1,2.128221314E-1,-5.313101739E-2,4.926863909E-2,2.248189570E-1
1.756171667E-1,1.963597342E-1,-5.548101336E-2,-1.344029295E-1,2.443346794E-1
1.856491667E-1,1.077200380E-1,-3.604223728E-2,-2.548801303E-1,2.790457494E-1
1.956811667E-1,1.492501795E-3,-3.252806067E-2,-2.638462508E-1,2.658479760E-1
2.057121667E-1,-9.268509239E-2,-3.296777129E-2,-1.804205167E-1,2.054968690E-1
2.157441668E-1,-1.114398904E-1,-1.771121621E-2,-8.086757720E-2,1.388239943E-1
2.257761668E-1,-7.177164853E-2,-2.761435300E-2,-2.172708392E-2,7.991112688E-2
2.358071667E-1,-3.071147695E-2,-3.555253297E-2,3.526514232E-2,5.874357565E-2
2.458391667E-1,-2.737169355E-2,-2.314941913E-2,8.998514056E-2,9.686294821E-2
2.558711667E-1,-5.944162488E-2,-2.044040412E-2,1.253210342E-1,1.402015638E-1
2.659021667E-1,-5.890104979E-2,-1.633887470E-2,1.345859474E-1,1.478163378E-1
2.759341667E-1,-1.072139615E-1,2.252873719E-2,8.149439871E-2,1.365419883E-1
2.859661668E-1,-2.586429597E-1,1.407986140E-1,9.006817102E-2,3.079491935E-1
2.959971668E-1,-4.152973223E-1,4.113975218E-1,3.628647548E-1,6.880338779E-1
3.060291667E-1,-4.977910101E-1,7.319354519E-1,8.982697338E-1,1.261116137E0
3.160611667E-1,-5.617909782E-1,1.060216265E0,1.454783161E0,1.885752284E0
3.260921667E-1,-6.643505560E-1,1.574995191E0,1.887826783E0,2.546735454E0
3.361241667E-1,-1.466537819E0,2.191740494E0,1.686548663E0,3.130320425E0
3.461561668E-1,-1.133190393E-1,2.330420662E0,7.409334397E-1,2.447995921E0
3.561881668E-1,1.008816023E0,2.432345232E0,1.172249794E0,2.882391833E0
3.662191667E-1,1.137451259E0,2.675154078E0,3.855813046E0,4.828823765E0
3.762505001E-1,8.920482963E-1,1.977571018E0,5.765741719E0,6.160382688E0
3.862825000E-1,1.343291669E0,1.220047858E0,3.690540910E0,4.112546838E0
3.963135000E-1,2.174311699E0,1.483479542E-1,-4.600998580E-2,2.179852150E0
4.063455000E-1,6.368190873E-1,-8.285525045E-1,-1.065931041E0,1.492731318E0
4.163775000E-1,-1.144542763E0,-1.456359717E0,-1.374421368E0,2.306511621E0
4.264085001E-1,-6.238005540E-1,-2.164009051E0,-2.509817916E0,3.372128152E0
4.364405001E-1,3.326130152E-1,-2.584437743E0,-3.513754438E0,4.374519416E0
4.464725001E-1,1.098299181E0,-1.939528595E0,-4.783736933E0,5.277515638E0
4.565035000E-1,1.086952074E0,-1.372758566E0,-5.747075068E0,6.007895033E0
4.665355000E-1,7.673613927E-1,-1.911917312E0,-6.409300307E0,6.732265721E0
4.765675000E-1,4.765754114E-1,-2.008386137E0,-6.719466446E0,7.029364717E0
4.865985001E-1,-7.225164646E-1,-1.546897273E0,-5.736327301E0,5.985012290E0
4.966305001E-1,-9.536504674E-1,-7.304939671E-1,-3.320991034E0,3.531579264E0
5.066625001E-1,-2.291902275E0,-4.569043547E-2,4.843449284E0,5.358535679E0
5.166935001E-1,1.537945332E0,-1.254356835E0,-2.664849238E0,3.322665853E0
5.267255000E-1,2.100341643E0,-9.273333192E-1,-3.752263534E-1,2.326408588E0
5.367575000E-1,9.147941845E-1,1.047523860E0,-3.338712775E0,3.616788303E0
5.467885000E-1,9.173579693E-1,2.034516759E0,1.126477790E-1,2.234612631E0
5.568205001E-1,3.272046915E0,2.011206834E-1,-9.432482708E-1,3.411225270E0
5.668525001E-1,2.818751170E0,-1.211675815E0,-1.974346864E0,3.648501333E0
5.768835001E-1,7.087044641E-1,-1.313380091E0,-2.280038713E0,2.725033177E0
5.869155000E-1,7.901070616E-1,-1.519010294E0,-3.120335058E0,3.559234793E0
5.969475000E-1,4.844236904E-1,-1.344707280E0,-2.970529978E0,3.296506079E0
6.069785000E-1,-1.238780437E0,-7.870510143E-1,-2.178781310E0,2.626997196E0
6.170105000E-1,-2.798246739E0,2.291938967E-1,-2.785642773E0,3.955062618E0
6.270425001E-1,-1.343074737E0,3.641555277E-1,-3.716789061E0,3.968750424E0
6.370735001E-1,8.600008768E-1,-7.127266176E-1,-3.779410987E0,3.941005982E0
6.471055001E-1,1.554393111E0,-1.202976620E0,-2.895404951E0,3.499522899E0
6.571375000E-1,1.447293463E0,-1.055571968E0,-2.245225561E0,2.872268853E0
6.671685000E-1,1.343933986E0,-1.226059527E0,-1.901264269E0,2.631384872E0
6.772005000E-1,1.002484074E0,-1.367336005E0,-1.430257015E0,2.218156261E0
6.872325001E-1,4.153435153E-1,-1.512523100E0,-1.069069242E0,1.898195303E0
6.972635001E-1,-5.793801337E-2,-1.707794960E0,-1.078603127E0,2.020718967E0
7.072955001E-1,-4.170877397E-1,-1.893741388E0,-1.253882772E0,2.309207793E0
7.173275000E-1,-6.221741509E-1,-1.821918138E0,-1.267337215E0,2.304914313E0
7.273585000E-1,-5.518204522E-1,-1.743974168E0,-1.385360924E0,2.294597263E0
7.373905000E-1,-4.393755716E-1,-2.038026404E0,-1.641952534E0,2.653791748E0
7.474225000E-1,-1.056391309E0,-2.104207091E0,-1.834828205E0,2.985003287E0
7.574535001E-1,-1.654516447E0,-2.218391226E0,-1.700499535E0,3.248135307E0
7.674855001E-1,-2.025178463E0,-2.418568754E0,-1.693071817E0,3.580127764E0
7.775175001E-1,-2.088169933E0,-2.684786197E0,-1.681612444E0,3.794252364E0
7.875495000E-1,-1.824397942E0,-2.569419170E0,-1.297343956E0,3.407850358E0
7.975805000E-1,-1.188119722E0,-2.006190362E0,-8.531900400E-1,2.482813220E0
8.076125000E-1,-2.175661236E-1,-1.298884259E0,-4.396258324E-1,1.388418600E0
8.176445001E-1,7.955171978E-1,-8.325848906E-1,1.655136251E-1,1.163374390E0
8.276755001E-1,1.852538837E0,-6.209411193E-1,7.753861114E-1,2.102068419E0
8.377075001E-1,2.332884679E0,-4.809239857E-1,1.269952090E0,2.699336421E0
8.477395000E-1,2.159271491E0,-5.553890810E-1,1.817468114E0,2.876473665E0
8.577705000E-1,1.844309465E0,-6.957506157E-1,1.832867634E0,2.691644495E0
8.678025000E-1,1.310655727E0,-7.566405228E-1,1.428031565E0,2.080768480E0
8.778345000E-1,6.788810331E-1,-7.009873820E-1,1.075943229E0,1.452555196E0
8.878655001E-1,1.288615233E-1,-6.157363665E-1,7.579305647E-1,9.849849269E-1
8.978975001E-1,-3.124126393E-1,-8.314291153E-1,5.343600816E-1,1.036540751E0
9.079295001E-1,-4.881407654E-1,-1.137203191E0,4.542643368E-1,1.318282441E0
9.179605000E-1,-4.317005163E-1,-1.027940146E0,6.384193240E-1,1.284758932E0
9.279925000E-1,-1.402372813E-1,-8.324790560E-1,7.963428247E-1,1.160538568E0
9.380245000E-1,3.965213281E-1,-5.235322076E-1,9.866902325E-1,1.185273281E0
9.480555000E-1,1.112985924E0,-2.166286688E-1,1.092614810E0,1.574634171E0
9.580875001E-1,1.558001136E0,5.257173121E-2,1.137517918E0,1.929787123E0
9.681195001E-1,1.671796723E0,2.398688659E-1,1.081126201E0,2.005311751E0
9.781505001E-1,1.647552413E0,1.852351141E-1,1.058169447E0,1.966841015E0
9.881825000E-1,1.695486133E0,5.778174654E-2,1.001350883E0,1.969953184E0
9.982145000E-1,2.038766808E0,4.610383362E-2,9.013085318E-1,2.229585775E0
1.008245500E0,2.654541766E0,2.062798280E-1,6.155562723E-1,2.732773843E0
1.018277500E0,3.339314454E0,5.969863924E-1,1.965892740E-1,3.397949546E0
1.028309500E0,3.959413428E0,1.002495768E0,-1.267851770E-1,4.086321933E0
1.038340500E0,4.429618444E0,1.308821748E0,-2.564401674E-1,4.626045340E0
1.048372500E0,4.941548021E0,1.427334869E0,-3.485138603E-1,5.155350967E0
1.058404500E0,5.585925220E0,1.569768949E0,-5.320486041E-1,5.826646620E0
1.068435500E0,5.919319423E0,1.949656118E0,-7.069997084E-1,6.272108896E0
1.078467500E0,5.900032382E0,2.316298175E0,-1.050466325E0,6.424881232E0
1.088499500E0,5.735998102E0,2.549242183E0,-1.358125617E0,6.422212635E0
1.098530500E0,5.527954754E0,2.663136588E0,-1.388444599E0,6.291133337E0
1.108562500E0,5.477578653E0,2.770294417E0,-1.368136196E0,6.288894633E0
1.118594500E0,5.595600023E0,3.027585939E0,-1.460388887E0,6.527614567E0
1.128626500E0,5.958500445E0,3.594020922E0,-1.678170627E0,7.158000461E0
1.138657500E0,6.500634400E0,4.157080892E0,-1.915276683E0,7.950336717E0
1.148689500E0,6.367207956E0,4.508767524E0,-1.740860965E0,7.993805016E0
1.158721500E0,5.814694608E0,4.749886233E0,-1.811529390E0,7.723582805E0
1.168752500E0,5.210064443E0,4.669796335E0,-1.638482212E0,7.185846733E0
1.178784500E0,5.326845034E0,4.510928071E0,-1.205129930E0,7.083508186E0
1.188816500E0,5.896329925E0,4.879608466E0,-1.209326988E0,7.748532579E0
1.198847500E0,5.430474653E0,5.475738534E0,-2.103477359E0,7.993646505E0
1.208879500E0,4.022327714E0,5.603308992E0,-3.304870845E0,7.648422269E0
1.218911500E0,1.668398321E0,4.648244083E0,-4.710728599E0,6.825004758E0
1.228942500E0,-7.572401547E-1,3.255692253E0,-5.190569826E0,6.173731434E0
1.238974500E0,-2.885117360E0,1.932770821E0,-4.249613664E0,5.488052617E0
1.249006500E0,-3.830872332E0,7.389404163E-1,-2.589828876E0,4.682822799E0
1.259037500E0,-3.933011495E0,3.825687021E-2,-1.321053246E0,4.149123364E0
1.269069500E0,-4.209604676E0,-2.729369169E-1,-1.409686511E0,4.447750234E0
1.279101500E0,-4.103863628E0,-1.429805025E-1,-1.853345168E0,4.505222349E0
1.289132500E0,-2.861433213E0,5.131843901E-1,-2.046260015E0,3.555044064E0
1.299164500E0,-1.474571893E0,1.553073687E0,-2.148387483E0,3.033474728E0
1.309196500E0,-6.798832458E-1,2.113487207E0,-2.330046440E0,3.218413556E0
1.319227500E0,-1.076501638E-1,2.101333770E0,-2.147757154E0,3.006668083E0
1.329259500E0,5.818026352E-1,2.411299934E0,-1.367050953E0,2.832258813E0
1.339291500E0,1.065852104E0,2.494466929E0,-4.090687220E-1,2.743308802E0
1.349322500E0,1.965052714E0,1.820534979E0,-7.270264220E-1,2.775670585E0
1.359354500E0,2.401887671E0,1.210644074E0,-8.194112599E-1,2.811789158E0
1.369386500E0,2.755656497E0,7.296597156E-1,-1.738576019E-1,2.855918853E0
1.379418667E0,3.266490306E0,1.645745623E-1,1.348076738E0,3.537563370E0
1.389450667E0,3.336549890E0,-7.558546570E-1,2.448529887E0,4.207039343E0
1.399482667E0,2.850480208E0,-6.058417082E-2,1.577624391E0,3.258497596E0
1.409513667E0,2.253926218E0,9.362921306E-1,-1.686455400E-1,2.446480670E0
1.419545667E0,1.980271263E0,1.681111484E0,-1.083907721E0,2.814687557E0
1.429577667E0,1.232560315E0,1.455477372E0,-5.885608470E-1,1.996001799E0
1.439608667E0,2.130245912E-1,6.702419181E-1,-2.036971128E-1,7.321859183E-1
1.449640667E0,-1.089394748E0,-7.007849953E-1,-1.725032406E-1,1.306766198E0
1.459672667E0,-2.869839170E0,-2.241694427E0,-1.316501774E0,3.872253567E0
1.469703667E0,-4.287945086E0,-3.297794252E0,-1.863573263E0,5.721435598E0
1.479735667E0,-4.111974301E0,-3.050882123E0,-2.184944276E0,5.566883856E0
1.489767667E0,-3.999235890E0,-2.384435194E0,-3.076701965E0,5.580816596E0
1.499798667E0,-4.857028273E0,-1.789779502E0,-3.016170419E0,5.990936347E0
1.509830667E0,-5.114373005E0,-1.325747683E0,-2.289789676E0,5.758259712E0
1.519862667E0,-4.506093008E0,-7.427115780E-1,-1.616383245E0,4.844500953E0
1.529893667E0,-3.116303403E0,-2.209808975E-1,-1.211263440E0,3.350722098E0
1.539925667E0,-1.626491327E0,-4.906503904E-1,-6.955027668E-1,1.835738527E0
1.549957667E0,-8.051808912E-1,-1.416187445E0,2.855443910E-2,1.629330692E0
1.559988667E0,5.123154938E-2,-3.008045713E0,1.614663140E0,3.414396102E0
1.570020667E0,1.249382170E0,-4.496623150E0,3.285831141E0,5.707649415E0
1.580052667E0,2.447776619E0,-4.455935007E0,3.420237579E0,6.127396859E0
1.590084667E0,2.973479313E0,-4.030442772E0,3.398671879E0,6.052852113E0
1.600115667E0,2.832555569E0,-2.971555579E0,2.632615000E0,4.876902229E0
1.610147667E0,2.189985160E0,-1.721875201E0,1.937627811E0,3.393418740E0
1.620179667E0,1.175837061E0,-3.657129335E-1,1.783270527E0,2.167116175E0
1.630210667E0,7.510748506E-3,8.208157611E-1,1.754494625E0,1.937019957E0
1.640242667E0,-5.661934930E-1,1.534872474E0,1.099000554E0,1.970840126E0
1.650274667E0,-5.254331374E-1,1.543804096E0,3.446451232E-2,1.631134228E0
1.660305667E0,-3.378667384E-1,1.494540135E0,-3.947021131E-1,1.582274915E0
1.670337667E0,-4.282261008E-1,1.475830799E0,1.341381969E-1,1.542545687E0
1.680369667E0,-6.484246409E-1,1.307223412E0,1.063804994E0,1.805815225E0
1.690400667E0,-9.500614464E-1,7.973432833E-1,2.023150649E0,2.373080616E0
1.700432667E0,-1.177012351E0,2.913907295E-1,2.524744396E0,2.800821468E0
1.710464667E0,-1.296920618E0,-2.742157030E-1,2.646802391E0,2.960195980E0
1.720495667E0,-1.376612320E0,-9.001706636E-1,2.335447952E0,2.856516382E0
1.730527667E0,-1.521004633E0,-1.120821193E0,2.285120967E0,2.965041833E0
1.740559667E0,-1.544116337E0,-1.059714282E0,2.282103950E0,2.952166672E0
1.750590667E0,-1.289432089E0,-6.632648742E-1,2.192431051E0,2.628556508E0
1.760622667E0,-4.896551943E-1,5.464035916E-1,1.685893775E0,1.838629086E0
1.770654667E0,4.470237297E-1,2.423231762E0,3.264968276E-1,2.485655359E0
1.780685667E0,2.535428721E-1,3.161442738E0,-5.862720276E-1,3.225324645E0
1.790717667E0,1.870533058E-1,3.108087480E0,-5.231081383E-1,3.157346805E0
1.800749667E0,4.899133489E-1,2.981355513E0,-3.960260689E-1,3.047184345E0
1.810780667E0,2.610612220E-1,2.546053696E0,5.890228502E-1,2.626307351E0
1.820812667E0,-2.965049967E-1,1.603457975E0,2.176426052E0,2.719526255E0
1.830844667E0,-6.938221309E-1,9.300891119E-1,2.399815418E0,2.665627308E0
1.840875667E0,-9.365935546E-1,-1.109377608E0,4.450263208E-1,1.518543575E0
1.850907667E0,-9.251508459E-1,-2.657336150E0,-9.467267793E-1,2.968776027E0
1.860939667E0,-1.396188213E0,-2.702708205E0,4.889295183E-1,3.081075339E0
1.870970667E0,-1.461780817E0,-2.985466690E0,5.134849370E-2,3.324522700E0
1.881002667E0,-1.117346486E0,-3.340660483E0,-4.753085390E-1,3.554489251E0
1.891034667E0,-5.633827364E-1,-3.452365690E0,-6.301386434E-1,3.554335898E0
1.901065667E0,1.059136869E-1,-3.180475425E0,-6.143470681E-1,3.240997371E0
1.911097667E0,1.014235004E0,-2.423891328E0,-4.353767339E-1,2.663357789E0
1.921129667E0,1.479774746E0,-1.752188337E0,-5.848735929E-2,2.294192241E0
1.931160667E0,1.496967752E0,-1.472463972E0,2.030814010E-1,2.109574520E0
1.941192667E0,1.404411445E0,-1.537288544E0,3.500651997E-1,2.111438660E0
1.951224667E0,1.567074991E0,-8.492969638E-1,4.828711816E-1,1.846671042E0
1.961256667E0,2.502228815E0,3.885673606E-1,6.404279157E-1,2.611949760E0
1.971287667E0,3.643962283E0,1.521389964E0,5.992600822E-1,3.994020679E0
1.981319667E0,5.321174405E0,2.850498919E0,4.697520031E-1,6.054825190E0
1.991351667E0,6.569343277E0,3.554613027E0,5.314761617E-1,7.488258260E0
2.001382667E0,5.044519243E0,2.246721278E0,-3.042201785E-1,5.530594978E0
2.011414667E0,3.192934672E0,-3.283737838E-1,-1.503506255E0,3.544459370E0
2.021446667E0,9.075802553E-1,-2.623653849E0,-2.589125456E0,3.796160174E0
2.031477667E0,-1.155157798E0,-3.690988807E0,-3.080824837E0,4.944620267E0
2.041509667E0,-2.652797834E0,-4.085650721E0,-3.012405982E0,5.727518482E0
2.051541667E0,-3.797783523E0,-3.930401298E0,-2.645058752E0,6.071865434E0
2.061572667E0,-4.111584876E0,-3.181148440E0,-2.149989036E0,5.625592275E0
2.071604667E0,-3.384964836E0,-1.821817566E0,-1.373781683E0,4.082190869E0
2.081636667E0,-2.138990277E0,-3.653767186E-1,-2.410210598E-1,2.183316446E0
2.091667667E0,-6.548893225E-1,7.163458979E-1,8.328149785E-1,1.278910575E0
2.101699667E0,4.241584852E-1,1.027242354E0,1.254420716E0,1.675920227E0
2.111731667E0,9.853014457E-1,8.852666956E-1,1.151295566E0,1.754992177E0
2.121762667E0,1.120962696E0,5.160705757E-1,8.731530190E-1,1.511715052E0
2.131794667E0,1.016949939E0,-1.287165123E-1,6.750196780E-1,1.227357603E0
2.141826667E0,9.132340743E-1,-8.123144943E-1,5.842416550E-1,1.354691708E0
2.151857667E0,8.894894086E-1,-1.325435734E0,5.129879236E-1,1.676641853E0
2.161889667E0,1.049045890E0,-1.323917797E0,4.556781936E-1,1.749542292E0
2.171921667E0,1.193513194E0,-1.465007018E0,3.406305711E-1,1.920090751E0
2.181952667E0,1.174842596E0,-1.574563374E0,1.138322787E-1,1.967857396E0
2.191984667E0,1.097862247E0,-1.704910675E0,-1.163427807E-1,2.031146860E0
2.202016667E0,1.059965858E0,-1.587858188E0,-4.396471748E-1,1.959109717E0
2.212047667E0,1.083189683E0,-1.402266394E0,-7.326391643E-1,1.917396953E0
2.222079667E0,1.157075977E0,-1.213420039E0,-9.782988203E-1,1.941206220E0
2.232111667E0,1.022238015E0,-1.133181623E0,-1.248249564E0,1.971597860E0
2.242142667E0,9.888436890E-1,-1.131828577E0,-1.377077758E0,2.038428542E0
2.252174667E0,1.005209607E0,-1.276738953E0,-1.424012189E0,2.160629404E0
2.262206667E0,1.185643426E0,-1.549005779E0,-1.399136087E0,2.400573062E0
2.272237667E0,1.521944426E0,-1.775935049E0,-1.343499245E0,2.697267202E0
2.282269667E0,1.923474187E0,-1.879002165E0,-1.323823072E0,2.997150248E0
2.292301667E0,2.292035299E0,-1.990149549E0,-1.289841979E0,3.298153024E0
2.302332667E0,2.396645203E0,-2.101237875E0,-1.091736558E0,3.369124152E0
2.312364667E0,2.432069390E0,-2.305402765E0,-9.565302211E-1,3.484938090E0
2.322396667E0,2.286533947E0,-2.574085248E0,-8.309852386E-1,3.541848221E0
2.332427667E0,1.985607285E0,-2.848554720E0,-8.653776839E-1,3.578516288E0
2.342459667E0,1.835840212E0,-3.096619921E0,-9.563814095E-1,3.724785849E0
2.352491667E0,2.231328922E0,-3.004301156E0,-1.076717985E0,3.894094993E0
2.362522667E0,2.693948784E0,-2.592787567E0,-2.147789313E0,4.311949252E0
2.372554667E0,2.477376979E0,-2.259416753E0,-4.921318994E0,5.954976188E0
2.382585917E0,2.569350173E0,-8.853204900E-1,-6.285266830E0,6.847622347E0
2.392616917E0,2.935468903E0,6.512108392E-1,-4.353619258E0,5.291035238E0
2.402648917E0,3.509514037E0,1.576802858E0,-2.214949847E0,4.439481823E0
2.412680917E0,3.701098643E0,2.206342746E0,-7.448714664E-1,4.372746617E0
2.422711917E0,3.383383164E0,2.609486046E0,5.968896210E-2,4.273202760E0
2.432743917E0,2.802414342E0,2.326528171E0,-2.260130296E-1,3.649293269E0
2.442775917E0,2.524961912E0,9.356521529E-1,-3.236220440E0,4.209988165E0
2.452806917E0,2.504640791E0,-3.988666463E-1,-5.981599871E0,6.497065269E0
2.462838917E0,2.290923598E0,-1.320368537E0,-6.338817970E0,6.868210630E0
2.472870917E0,1.615186758E0,-1.961718047E0,-4.034842510E0,4.768345629E0
2.482902917E0,8.141738357E-1,-2.147782297E0,-1.218021798E0,2.599889407E0
2.492933917E0,5.017662762E-1,-2.240945984E0,1.128433099E0,2.558704664E0
2.502965917E0,5.825521751E-1,-2.617620692E0,3.133277285E0,4.124164360E0
2.512997917E0,3.575379048E-1,-3.098236676E0,3.988654768E0,5.063227302E0
2.523028917E0,2.922450078E-1,-3.602812210E0,4.660890441E0,5.898267769E0
2.533060917E0,6.313729906E-1,-3.993613207E0,5.641094284E0,6.940426718E0
2.543092917E0,6.227300750E-1,-4.049331325E0,6.579320966E0,7.750634897E0
2.553123917E0,4.690864438E-1,-3.714457192E0,6.729076345E0,7.700500164E0
2.563155917E0,4.114270502E-1,-2.747720071E0,6.252528269E0,6.842028030E0
2.573187917E0,3.142050301E-1,-1.727341763E0,5.080830452E0,5.375618332E0
2.583218917E0,1.572469047E-1,-6.242961055E-1,3.653191820E0,3.709485502E0
2.593250917E0,-1.530767436E-1,3.332936311E-1,2.587684118E0,2.613546676E0
2.603282917E0,-8.217255878E-1,8.434257746E-1,1.789397678E0,2.142088707E0
2.613313917E0,-1.825856676E0,8.451670754E-1,1.040160023E0,2.264948754E0
2.623345917E0,-2.783861711E0,5.716191244E-1,7.619926254E-1,2.942323437E0
2.633377917E0,-3.425809391E0,2.911340368E-1,7.505849270E-1,3.519134374E0
2.643408917E0,-3.558840564E0,1.358278960E-1,5.692778993E-1,3.606642858E0
2.653440917E0,-3.197769150E0,1.439987952E-1,-2.721995831E-2,3.201125445E0
2.663472917E0,-2.757701853E0,3.399588722E-1,-1.143598437E-1,2.780929650E0
2.673503917E0,-2.502084389E0,6.095716470E-1,4.709663967E-1,2.617978844E0
2.683535917E0,-2.416543278E0,9.050267762E-1,9.363766960E-1,2.745096756E0
2.693567917E0,-2.404109467E0,1.282936417E0,1.287562734E0,3.013882209E0
2.703598917E0,-2.443930175E0,1.673133981E0,1.662345868E0,3.396404835E0
2.713630917E0,-2.857041954E0,2.080735198E0,1.940032479E0,4.031857352E0
2.723662917E0,-3.386375184E0,2.288599037E0,2.137219155E0,4.612258466E0
2.733693917E0,-3.965001319E0,2.439859489E0,2.365130904E0,5.221876481E0
2.743725917E0,-4.554957604E0,2.574389888E0,2.603763961E0,5.844203011E0
2.753757917E0,-5.167838191E0,2.691187436E0,2.668030708E0,6.408387413E0
2.763788917E0,-5.658188619E0,2.918865734E0,2.562571788E0,6.863064169E0
2.773820917E0,-6.091019402E0,3.181723221E0,2.305819087E0,7.248495132E0
2.783852917E0,-6.396613603E0,3.295908233E0,1.609657778E0,7.373647322E0
2.793883917E0,-6.508209468E0,3.182195676E0,1.078686304E0,7.324392394E0
2.803915917E0,-6.574135655E0,3.038125545E0,8.140904398E-1,7.287812407E0
2.813947917E0,-6.510670561E0,2.889205733E0,5.019274036E-1,7.140607260E0
2.823978917E0,-6.063490126E0,2.611229686E0,-8.114692792E-3,6.601855711E0
2.834010917E0,-5.030423945E0,1.961986434E0,-1.168806880E0,5.524551146E0
2.844042917E0,-3.608910856E0,7.488166559E-1,-3.067085634E0,4.794995124E0
2.854073917E0,-1.738058979E0,-5.712922651E-1,-4.854916259E0,5.188201591E0
2.864105917E0,3.772428388E-1,-1.971133819E0,-6.355252154E0,6.664601311E0
2.874137917E0,3.007463038E0,-3.273523922E0,-8.109174775E0,9.247675834E0
2.884168917E0,6.017936808E0,-3.440037421E0,-7.393783143E0,1.013496177E1
2.894200917E0,8.129177515E0,-2.332322761E0,-1.482322962E0,8.586066497E0
2.904232917E0,9.193340358E0,-1.706397622E0,3.563004366E0,1.000621306E1
2.914263917E0,9.816290435E0,-2.183819856E0,4.470307463E0,1.100510227E1
2.924295917E0,1.092593292E1,-3.291015283E0,1.449361038E0,1.150249709E1
2.934327917E0,1.124296194E1,-3.918053148E0,-6.569603332E-1,1.192421614E1
2.944358917E0,8.804090627E0,-3.429739305E0,9.895839465E-1,9.500231569E0
2.954390917E0,6.204009243E0,-2.661081877E0,2.259605033E0,7.118771127E0
2.964422917E0,4.314536177E0,-1.678880625E0,2.432797222E0,5.229948843E0
2.974453917E0,2.821548185E0,-6.136834091E-1,2.145619411E0,3.597419095E0
2.984485917E0,1.516946519E0,1.427743882E-1,1.734392921E0,2.308599158E0
2.994517917E0,2.640238599E-1,-5.899255872E-3,1.124807825E0,1.155394324E0
3.004548917E0,-8.467480163E-1,-1.902983935E0,-2.475956690E-1,2.097530376E0
3.014580917E0,-2.187458432E0,-4.368043755E0,-3.584422717E0,6.059114362E0
3.024612917E0,-3.587697158E0,-6.456825891E0,-7.472234650E0,1.050697207E1
3.034644917E0,-3.438659525E0,-6.990708255E0,-7.250197161E0,1.064235595E1
3.044675917E0,-2.176062647E0,-5.307701250E0,-3.324620401E0,6.630236950E0
3.054707917E0,-1.030067729E0,-2.642226945E0,-9.857470036E-2,2.837625720E0
3.064739917E0,-7.385949920E-1,-3.054620540E-1,1.236068645E0,1.471969878E0
3.074770917E0,-1.049870202E0,1.367100070E0,1.631569049E0,2.373437929E0
3.084802917E0,-1.380198125E0,2.672296836E0,1.932042843E0,3.574759683E0
3.094834917E0,-1.527213499E0,3.622892134E0,2.166034380E0,4.488812028E0
3.104865917E0,-1.737525713E0,4.345877545E0,2.315724270E0,5.221898710E0
3.114897917E0,-2.077226430E0,4.871693675E0,2.527254313E0,5.868158422E0
3.124929917E0,-2.270524416E0,5.148329540E0,2.787593404E0,6.279431118E0
3.134960917E0,-2.352700162E0,5.104305269E0,3.026979582E0,6.383708618E0
3.144992917E0,-2.173848599E0,4.481161065E0,3.046216922E0,5.838309666E0
3.155024917E0,-1.744811490E0,2.909728290E0,2.927132528E0,4.480958680E0
3.165055917E0,-1.060513669E0,7.701432055E-1,2.829034960E0,3.117891692E0
3.175087917E0,-4.277507587E-1,-1.164737291E0,2.774439508E0,3.039259491E0
3.185119917E0,-2.483390374E-2,-2.667309746E0,2.819187080E0,3.881104713E0
3.195150917E0,3.086064308E-1,-3.562485133E0,2.948127540E0,4.634435699E0
3.205182917E0,6.728725804E-1,-3.745655596E0,3.000788734E0,4.846382814E0
3.215214917E0,8.891091934E-1,-2.775591994E0,2.998681397E0,4.181688200E0
3.225245917E0,6.604115792E-1,-9.805657858E-1,3.035001962E0,3.257129046E0
3.235277917E0,4.405006124E-1,3.509329265E-1,2.999062636E0,3.051486753E0
3.245309917E0,2.825289453E-1,1.199720598E0,2.641398979E0,2.914814005E0
3.255340917E0,1.550554231E-1,1.553252612E0,2.195035985E0,2.693477090E0
3.265372917E0,5.198881863E-2,1.347753387E0,1.768077561E0,2.223789624E0
3.275404917E0,-5.136853868E-2,8.257473028E-1,1.327797425E0,1.564462635E0
3.285435917E0,-9.076298470E-2,3.446272892E-1,9.345628166E-1,1.000206752E0
3.295467917E0,-1.088253262E-1,-4.094337344E-2,5.833913237E-1,5.948653192E-1
3.305499917E0,-9.424913121E-2,-2.649408495E-1,2.525049913E-1,3.779356071E-1
3.315530917E0,-8.838296693E-2,-2.635573983E-1,-9.536867201E-2,2.938864316E-1
3.325562917E0,-8.414300468E-2,-6.574960113E-2,-4.184746993E-1,4.318843933E-1
3.335594917E0,-2.493366044E-2,1.785511619E-1,-7.038596805E-1,7.265814852E-1
3.345625917E0,4.187556580E-3,4.020598108E-1,-9.832514119E-1,1.062286669E0
3.355657917E0,4.610862102E-2,5.750812608E-1,-1.157575622E0,1.293377664E0
3.365689917E0,1.438336113E-1,5.741550618E-1,-1.215431043E0,1.351893029E0
3.375720917E0,2.698154540E-1,4.618440825E-1,-1.175176325E0,1.291177653E0
3.385753500E0,4.282615861E-1,3.152029306E-1,-1.067673000E0,1.192764230E0
3.395785500E0,5.831551327E-1,1.273295528E-1,-9.305598128E-1,1.105542532E0
3.405816500E0,6.980783922E-1,-7.857897699E-2,-7.875930512E-1,1.055362929E0
3.415848500E0,8.199795362E-1,-1.869196969E-1,-7.536417782E-1,1.129283553E0
3.425880500E0,9.264200572E-1,-1.193299770E-2,-6.991270173E-1,1.160678726E0
3.435911500E0,1.034563945E0,2.928525335E-1,-6.769448738E-1,1.270566616E0
3.445943500E0,1.098725516E0,5.289514071E-1,-7.349039371E-1,1.423752488E0
3.455975500E0,1.100755669E0,7.448680311E-1,-8.088984047E-1,1.555894616E0
3.466006500E0,1.084302993E0,8.651452571E-1,-8.875798541E-1,1.646811250E0
3.476038500E0,1.028115709E0,8.315892559E-1,-9.259030902E-1,1.614267368E0
3.486070500E0,9.620135207E-1,7.081024933E-1,-8.946735500E-1,1.492420824E0
3.496101500E0,9.197774740E-1,4.416963315E-1,-8.169308710E-1,1.307081596E0
3.506133500E0,8.990419317E-1,1.186891222E-1,-6.841388494E-1,1.135961913E0
3.516165500E0,9.203274778E-1,-1.572877622E-1,-5.184340203E-1,1.067949409E0
3.526196500E0,9.817719202E-1,-3.084493965E-1,-3.013444448E-1,1.072299216E0
3.536228500E0,1.056758368E0,-3.432029074E-1,-7.240607142E-2,1.113449201E0
3.546260500E0,1.179477830E0,-3.947519606E-1,1.385334027E-1,1.251474556E0
3.556291500E0,1.314219605E0,-5.818388879E-1,2.463211222E-1,1.458212521E0
3.566323500E0,1.431256158E0,-7.919468880E-1,1.917508127E-1,1.646949434E0
3.576355500E0,1.532579488E0,-7.978724563E-1,1.901514530E-2,1.727935740E0
3.586386500E0,1.639711004E0,-4.478066719E-1,-2.401359375E-1,1.716638652E0
3.596418500E0,1.865152012E0,-2.603940547E-2,-4.580141562E-1,1.920741275E0
3.606450500E0,2.166087736E0,1.721993315E-1,-6.357882231E-1,2.264026359E0
3.616482500E0,2.515645836E0,-2.456590712E-2,-7.412135214E-1,2.622684682E0
3.626513500E0,2.873870825E0,-6.583941436E-1,-7.162343623E-1,3.034074493E0
3.636545500E0,3.229878550E0,-1.544769471E0,-6.087910438E-1,3.631673816E0
3.646577500E0,3.589533184E0,-2.373153868E0,-4.334494185E-1,4.324868340E0
3.656608500E0,3.947292442E0,-2.963104599E0,-2.848782469E-1,4.943911619E0
3.666640500E0,4.250988052E0,-3.384751997E0,-2.716237785E-1,5.440700780E0
3.676672500E0,4.452708221E0,-3.617337279E0,-3.896303844E-1,5.750091419E0
3.686703500E0,4.713027139E0,-3.651717737E0,-1.013196173E0,6.047663494E0
3.696735500E0,6.671973606E0,-3.675798326E0,-5.054155455E0,9.141729185E0
3.706767500E0,8.063278225E0,-2.453257799E0,-7.051950822E0,1.098931026E1
3.716798500E0,6.076417735E0,-8.661106324E-1,-3.540576201E0,7.085808349E0
3.726830500E0,4.817548750E0,-5.436975002E-2,-2.607416131E0,5.478170398E0
3.736862500E0,3.967476446E0,8.801018500E-1,-3.881830232E0,5.619969267E0
3.746893500E0,3.074285603E0,1.475553641E0,-4.864793960E0,5.940935179E0
3.756925500E0,1.997789667E0,1.156717250E0,-4.590937276E0,5.138663584E0
3.766957500E0,6.744811495E-1,1.141306329E-1,-3.467570790E0,3.534402044E0
3.776988500E0,-4.312402308E-1,-1.278578487E0,-1.944726623E0,2.367000787E0
3.787020500E0,-1.180277071E0,-2.656239797E0,-3.754450393E-1,2.930805828E0
3.797052500E0,-1.969253500E0,-3.829235696E0,1.204740433E0,4.471286714E0
3.807083500E0,-2.305204106E0,-4.615968622E0,3.129397073E0,6.034422783E0
3.817115500E0,-2.604264775E0,-5.040782288E0,5.222825407E0,7.711652632E0
3.827147500E0,-3.209530824E0,-4.974504098E0,6.597834420E0,8.864434453E0
3.837178500E0,-2.577517271E0,-4.606688506E0,7.458853297E0,9.137815209E0
3.847210500E0,-2.063478895E0,-3.800984874E0,7.561474271E0,8.710988710E0
3.857242500E0,-1.537872096E0,-2.851845533E0,7.080905650E0,7.786995463E0
3.867273500E0,-1.110715597E0,-2.117387885E0,6.485305924E0,6.912033964E0
3.877305500E0,-3.174492846E-1,-1.424525574E0,5.514027271E0,5.703906022E0
3.887337500E0,8.713013519E-1,-7.053443617E-1,3.914976343E0,4.072310951E0
3.897368500E0,1.778037562E0,-1.140002400E-1,2.755309757E0,3.281180501E0
3.907400500E0,2.002243345E0,2.471237987E-1,2.216370721E0,2.997056515E0
3.917432500E0,1.324629111E0,3.311979890E-1,1.795219020E0,2.255470177E0
3.927463500E0,-1.328690587E-1,2.405334020E-1,1.334451702E0,1.362450678E0
3.937495500E0,-1.828394514E0,4.765656173E-2,1.006709272E0,2.087764643E0
3.947527500E0,-3.287816271E0,2.348709583E-2,1.018870165E0,3.442148150E0
3.957558500E0,-4.293398784E0,2.202271914E-1,1.229642408E0,4.471442003E0
3.967590500E0,-4.912379186E0,5.275872517E-1,1.600525596E0,5.193409262E0
3.977622500E0,-5.244294044E0,8.559394008E-1,2.056305385E0,5.697687611E0
3.987653500E0,-5.271398812E0,1.180352865E0,2.589713101E0,5.990617019E0
3.997685500E0,-5.154529928E0,1.653496692E0,3.013674828E0,6.195600540E0
4.007717500E0,-5.072586463E0,2.180374092E0,3.194353791E0,6.378797751E0
4.017748500E0,-5.108123501E0,2.599726458E0,3.200874606E0,6.564838277E0
4.027780500E0,-5.146769503E0,2.929611163E0,3.158725537E0,6.711885346E0
4.037812500E0,-5.334013721E0,3.126464694E0,3.114464453E0,6.922887598E0
4.047843500E0,-5.598100877E0,3.251227319E0,2.999280152E0,7.134766565E0
4.057875500E0,-5.823415146E0,3.348010433E0,2.663593841E0,7.226068777E0
4.067907500E0,-6.115843756E0,3.421291248E0,1.963827138E0,7.277732867E0
4.077938500E0,-6.399315017E0,3.438717120E0,1.321547921E0,7.383935063E0
4.087970500E0,-6.733398607E0,3.440036836E0,8.026519704E-1,7.603733321E0
4.098002500E0,-7.140178290E0,3.112600946E0,-2.065026069E-1,7.791859469E0
4.108033500E0,-7.485503152E0,2.110305737E0,-2.435591022E0,8.149739344E0
4.118065500E0,-7.598820437E0,3.342993522E-1,-5.905994203E0,9.629880353E0
4.128097500E0,-6.141273882E0,-1.380175028E0,-8.145925695E0,1.029447587E1
4.138128500E0,-3.989190373E0,-3.083669508E0,-8.263597401E0,9.680377032E0
4.148160500E0,-1.907750439E0,-4.694378030E0,-6.905509061E0,8.565205906E0
4.158192500E0,4.578606668E-1,-5.675451939E0,-5.329794370E0,7.799172977E0
4.168223500E0,2.954527026E0,-5.290548443E0,-2.719268689E0,6.641803594E0
4.178255500E0,4.718659470E0,-3.265403309E0,-1.992813686E-1,5.741804509E0
4.188287500E0,5.163428805E0,-9.127018315E-1,1.611781486E0,5.485604909E0
4.198318500E0,5.100120417E0,5.593797326E-1,3.248439367E0,6.072601771E0
4.208350500E0,5.284976631E0,1.255989524E0,3.807848336E0,6.633867396E0
4.218382500E0,5.646597683E0,1.379572765E0,3.352895197E0,6.710379469E0
4.228413500E0,6.605581981E0,1.100586904E0,1.672827587E0,6.902416749E0
4.238445500E0,8.473784339E0,6.344638288E-2,-1.217518353E0,8.561039505E0
4.248477500E0,8.930327336E0,-1.113295242E0,1.296854142E-1,9.000388376E0
4.258508500E0,7.705333902E0,-1.843985530E0,2.531409929E0,8.317480953E0
4.268540500E0,6.340332398E0,-1.958055936E0,3.039125419E0,7.298635577E0
4.278572500E0,4.772972502E0,-1.635565621E0,2.536738497E0,5.647245665E0
4.288603500E0,3.662083097E0,-1.164418618E0,1.818802156E0,4.251442650E0
4.298635500E0,2.787335542E0,-7.846226656E-1,1.071979986E0,3.087719748E0
4.308667500E0,1.983585172E0,-1.033366143E0,1.439420406E-1,2.241244081E0
4.318698500E0,1.866822269E0,-2.982532557E0,-1.359106341E0,3.771961808E0
4.328730500E0,1.184112479E0,-5.645656866E0,-4.509959772E0,7.322246988E0
4.338762500E0,4.472554256E-1,-7.337039423E0,-6.169664453E0,9.596715291E0
4.348794500E0,5.880803521E-1,-6.263777143E0,-3.583811683E0,7.240472966E0
4.358825500E0,3.955946906E-1,-3.274057773E0,-9.337753429E-1,3.427518906E0
4.368857500E0,-5.411964999E-1,-5.912301010E-1,2.340260357E-1,8.349939336E-1
4.378889375E0,-1.636244629E0,8.870693922E-1,-4.664908648E-2,1.861817587E0
4.388920375E0,-2.222978367E0,2.015628206E0,-3.900817895E-1,3.025979790E0
4.398952375E0,-2.471762483E0,3.056699810E0,-3.844076514E-1,3.949783885E0
4.408984375E0,-2.901081428E0,3.946876413E0,-4.073492020E-1,4.915286384E0
4.419015375E0,-3.954746765E0,4.763957557E0,-5.676131970E-1,6.217515446E0
4.429047375E0,-4.921290343E0,5.010469152E0,-3.854735988E-1,7.033668293E0
4.439079375E0,-4.998404008E0,4.661376345E0,1.014240485E-1,6.835404808E0
4.449110375E0,-4.333916773E0,4.124861564E0,5.794590712E-1,6.011080629E0
4.459142375E0,-3.370256457E0,3.378942204E0,8.205350947E-1,4.842432947E0
4.469174375E0,-2.672030788E0,2.063273073E0,9.388891715E-1,3.504048685E0
4.479205375E0,-1.898261870E0,3.204718566E-1,1.279690043E0,2.311645938E0
4.489237375E0,-1.216591569E0,-1.388102099E0,2.026775338E0,2.741302748E0
4.499269375E0,-6.959454010E-1,-2.676620852E0,3.054297189E0,4.120360483E0
4.509300375E0,-3.136448669E-1,-3.307503846E0,4.200187735E0,5.355327423E0
4.519332375E0,-9.123892978E-2,-3.145926567E0,5.207109261E0,6.084337709E0
4.529364375E0,-7.939466357E-2,-2.092226146E0,5.796575841E0,6.163116520E0
4.539395375E0,-1.496097833E-1,-7.831632006E-1,5.688177234E0,5.743786898E0
4.549427375E0,-2.426625925E-1,4.766539103E-1,5.057291901E0,5.085497562E0
4.559459375E0,-3.733704837E-1,1.368610990E0,4.052179504E0,4.293327415E0
4.569490375E0,-4.268732744E-1,1.638623714E0,3.013460235E0,3.456624229E0
4.579522375E0,-3.912543390E-1,1.302511141E0,2.128777092E0,2.526124925E0
4.589554375E0,-2.676929147E-1,7.184397858E-1,1.421556943E0,1.615128281E0
4.599585375E0,-1.718649621E-1,3.070431411E-1,9.490212268E-1,1.012153321E0
4.609617375E0,-1.556220732E-1,8.411570549E-2,6.193446102E-1,6.441128998E-1
4.619649375E0,-1.769016806E-1,8.490741849E-3,3.893402895E-1,4.277290711E-1
4.629680375E0,-2.370078233E-1,3.601826370E-2,1.915910375E-1,3.068829570E-1
4.639712375E0,-3.225091727E-1,9.686497450E-2,-4.859854817E-2,3.402305228E-1
4.649744375E0,-3.336581684E-1,1.611673898E-1,-3.144552179E-1,4.859884617E-1
4.659775375E0,-2.667607041E-1,1.699849910E-1,-5.527875817E-1,6.368911059E-1
4.669807375E0,-1.392491841E-1,1.377750188E-1,-7.374274492E-1,7.630016605E-1
4.679839375E0,1.493183361E-2,7.222305357E-2,-8.186850357E-1,8.220001927E-1
4.689870375E0,1.237763825E-1,-2.657559514E-3,-8.098077929E-1,8.192168925E-1
4.699902375E0,2.469484553E-1,-1.775974810E-1,-7.524163480E-1,8.115754836E-1
4.709934375E0,3.680186369E-1,-3.111379462E-1,-7.505610265E-1,8.919564973E-1
4.719965375E0,4.919506650E-1,-3.694247460E-1,-7.798191780E-1,9.932814556E-1
4.729997375E0,6.410430428E-1,-2.486797428E-1,-8.318577893E-1,1.079242873E0
4.740029375E0,6.467597924E-1,2.404877937E-1,-8.050494750E-1,1.060300554E0
4.750060375E0,6.111227672E-1,7.336483938E-1,-7.925473970E-1,1.240903856E0
4.760092375E0,8.067934071E-1,7.856997228E-1,-8.703042555E-1,1.423260044E0
4.770124375E0,9.605449194E-1,5.795333308E-1,-1.027983196E0,1.521596161E0
4.780155375E0,9.689289495E-1,5.298904699E-1,-1.207074056E0,1.636042480E0
4.790187375E0,9.493202388E-1,6.141125947E-1,-1.296086074E0,1.719936716E0
4.800219375E0,8.985861412E-1,6.735834557E-1,-1.335557849E0,1.744960313E0
4.810250375E0,8.277648845E-1,5.541675246E-1,-1.403427651E0,1.721018745E0
4.820282375E0,8.185850483E-1,2.256376201E-1,-1.424935610E0,1.658745101E0
4.830314375E0,8.229914369E-1,-1.877505863E-1,-1.416793947E0,1.649202922E0
4.840345375E0,8.405844663E-1,-5.090550864E-1,-1.358356436E0,1.676559433E0
4.850377375E0,8.920394524E-1,-5.928836936E-1,-1.270446910E0,1.661710207E0
4.860409375E0,9.722397161E-1,-4.430908924E-1,-1.189886312E0,1.599190120E0
4.870440375E0,1.009136012E0,-3.765156645E-1,-1.159548034E0,1.582615297E0
4.880472375E0,1.086804505E0,-4.217210734E-1,-1.157404591E0,1.642734940E0
4.890504375E0,1.313851523E0,-5.021232122E-1,-1.178859487E0,1.835222939E0
4.900535375E0,1.649988655E0,-6.644191146E-1,-1.165142796E0,2.126375568E0
4.910567375E0,2.012428610E0,-7.975818497E-1,-1.053383794E0,2.407410047E0
4.920599375E0,2.377494841E0,-7.779281884E-1,-8.958416775E-1,2.657101108E0
4.930630375E0,2.680409556E0,-6.022737372E-1,-7.642780097E-1,2.851569729E0
4.940662375E0,2.801187303E0,-3.579665422E-1,-6.134343177E-1,2.889825603E0
4.950694375E0,2.722332923E0,-1.930078179E-1,-5.285480954E-1,2.779876193E0
4.960725375E0,2.534254892E0,-1.131079549E-1,-5.542502627E-1,2.596619845E0
4.970757375E0,2.395306045E0,-1.765280253E-1,-6.530056420E-1,2.488989667E0
4.980789375E0,2.391024129E0,-4.507010436E-1,-7.568384510E-1,2.548123281E0
4.990820375E0,2.521050710E0,-9.534557551E-1,-8.183464819E-1,2.816818333E0
5.000852375E0,2.665884487E0,-1.550273455E0,-8.621947521E-1,3.202134862E0
5.010884375E0,2.787466812E0,-2.017620353E0,-8.837508050E-1,3.552714258E0
5.020915375E0,2.826481774E0,-2.374080067E0,-8.829845273E-1,3.795381016E0
5.030947375E0,2.794244612E0,-2.757750385E0,-9.113903010E-1,4.030337755E0
5.040979375E0,2.725904987E0,-3.124784789E0,-9.448077232E-1,4.252940113E0
5.051010375E0,2.740023089E0,-3.348639008E0,-9.950442226E-1,4.439732283E0
5.061042375E0,2.833106377E0,-3.304823483E0,-1.107452120E0,4.491636694E0
5.071074375E0,3.054175275E0,-2.798521265E0,-1.597449522E0,4.439769460E0
5.081105375E0,3.518085471E0,-1.940259351E0,-4.467368653E0,6.008237213E0
5.091137375E0,3.583735962E0,-5.116541737E-1,-7.741173826E0,8.545801638E0
5.101169375E0,3.073520495E0,6.951859939E-1,-4.974819263E0,5.888857147E0
5.111200375E0,2.521681917E0,1.542777910E0,-3.422741357E0,4.522632172E0
5.121232375E0,1.527563308E0,2.219245212E0,-5.714446435E0,6.317705045E0
5.131264375E0,-1.392614050E-3,1.354812731E0,-8.185172791E0,8.296539826E0
5.141295375E0,-1.412334568E0,-5.167517763E-1,-7.594898710E0,7.742364480E0
5.151327375E0,-2.395121711E0,-2.304185960E0,-5.034050973E0,6.032209392E0
5.161359375E0,-2.855784218E0,-3.572486211E0,-2.129076469E0,5.044911083E0
5.171390375E0,-3.209379089E0,-4.282853331E0,2.288296517E-1,5.356800332E0
5.181422375E0,-3.644390299E0,-4.731530069E0,2.844402612E0,6.615102695E0
5.191454375E0,-3.487494300E0,-5.048746780E0,5.175997396E0,8.027665264E0
5.201486375E0,-2.420065641E0,-4.902872198E0,5.941081005E0,8.074114008E0
5.211517375E0,-2.378432881E0,-4.077185122E0,6.890813838E0,8.352466512E0
5.221549375E0,-2.462005234E0,-3.132827634E0,7.493455950E0,8.486928822E0
5.231581375E0,-1.952798705E0,-2.688062684E0,7.159903872E0,7.893245671E0
5.241612375E0,-1.795665163E0,-2.492555181E0,6.377796679E0,7.079091409E0
5.251644375E0,-1.763812748E0,-2.005685601E0,5.072313398E0,5.732553824E0
5.261676375E0,-9.277005243E-1,-1.083484383E0,3.701958768E0,3.967249096E0
5.271707375E0,4.029775313E-1,-4.882916236E-1,1.526126794E0,1.652235634E0
5.281739375E0,8.838139549E-1,1.535373580E-1,4.156656969E-1,9.886752747E-1
5.291771375E0,4.311874232E-1,5.520461547E-1,-3.772622808E-1,7.956157234E-1
5.301802375E0,-5.156712109E-1,5.673214209E-1,-1.240720689E0,1.458478050E0
5.311834375E0,-1.877271974E0,3.984187496E-1,-1.769423590E0,2.610315576E0
5.321866375E0,-3.074901900E0,2.448182416E-1,-1.837153204E0,3.590277087E0
5.331897375E0,-3.883300514E0,2.619663709E-1,-1.211337261E0,4.076271240E0
5.341929375E0,-4.298936975E0,5.348500782E-1,5.583623171E-2,4.332440583E0
5.351961375E0,-4.376459067E0,8.822723365E-1,1.123141369E0,4.603612166E0
5.361992375E0,-4.264328767E0,1.372959564E0,1.969793783E0,4.893833400E0
5.372024375E0,-4.167229027E0,1.909159765E0,2.405228770E0,5.176467348E0
5.382056042E0,-4.231004023E0,2.293258683E0,2.746117934E0,5.540901925E0
5.392087042E0,-4.318703195E0,2.636428846E0,2.862209723E0,5.813277806E0
5.402119042E0,-4.394696533E0,2.892712893E0,2.855222300E0,5.986103898E0
5.412151042E0,-4.431786299E0,3.133121749E0,2.968558881E0,6.186236621E0
5.422182042E0,-4.429757023E0,3.435912210E0,2.881286849E0,6.303178080E0
5.432214042E0,-4.567744296E0,3.716161070E0,2.244961120E0,6.301903798E0
5.442246042E0,-4.829608925E0,3.952487401E0,1.348012273E0,6.384701724E0
5.452277042E0,-5.160661318E0,4.285080535E0,6.518965714E-1,6.739384955E0
5.462309042E0,-5.598413703E0,4.504739377E0,8.216039658E-2,7.186213410E0
5.472341042E0,-5.990567746E0,4.433890420E0,-1.826494022E-1,7.455175851E0
5.482372042E0,-6.098852917E0,4.245748655E0,2.304446161E-1,7.434749038E0
5.492404042E0,-5.815830138E0,3.709015188E0,2.260825932E-1,6.901578602E0
5.502436042E0,-5.505071676E0,2.332926194E0,-5.342543200E-1,6.002814878E0
5.512467042E0,-4.919462503E0,5.523975724E-1,-1.363112268E0,5.134620673E0
5.522499042E0,-3.683071969E0,-1.198041278E0,-1.762652514E0,4.255263320E0
5.532531042E0,-1.755656174E0,-2.713039650E0,-2.189992762E0,3.903713750E0
5.542562042E0,1.118461550E0,-3.642577370E0,-2.153350600E0,4.376784772E0
5.552594042E0,4.654166143E0,-3.804670959E0,-1.076535552E0,6.107021564E0
5.562626042E0,7.416794275E0,-3.912481921E0,4.554665244E-1,8.397845072E0
5.572657042E0,9.140818328E0,-4.365592017E0,1.198168747E0,1.020041968E1
5.582689042E0,1.084552318E1,-4.839643332E0,5.041124350E-1,1.188703706E1
5.592721042E0,1.343720679E1,-5.129724285E0,-2.144987912E0,1.454213089E1
5.602752042E0,1.468980669E1,-4.585604031E0,-2.966111822E0,1.567214102E1
5.612784042E0,1.351478180E1,-3.485387841E0,-8.002680606E-1,1.397990288E1
5.622816042E0,1.109456077E1,-1.697121014E0,5.827270800E-1,1.123873077E1
5.632847042E0,7.923374820E0,2.538089204E-1,8.320670465E-1,7.970986330E0
5.642879042E0,5.752624660E0,1.732856857E0,7.167400002E-1,6.050553660E0
5.652911042E0,4.262597407E0,1.942075496E0,2.370333318E-1,4.690157639E0
5.662942042E0,2.301985506E0,1.392568787E0,-9.949686474E-1,2.868509666E0
5.672974042E0,1.543675165E-1,-2.226198721E-1,-3.438853945E0,3.449507992E0
5.683006042E0,-2.271013243E0,-4.001698152E0,-8.797281545E0,9.927902691E0
5.693037042E0,-3.415305161E0,-7.567216237E0,-1.074895057E1,1.358186325E1
5.703069042E0,-2.580559578E0,-8.118613350E0,-6.131721286E0,1.049615055E1
5.713101042E0,-1.891020678E0,-6.446862236E0,-1.240972120E0,6.832130246E0
5.723132042E0,-1.897437705E0,-3.984593292E0,9.719521793E-1,4.519064570E0
5.733164042E0,-2.145583743E0,-1.871749279E0,1.183451305E0,3.083428604E0
5.743196042E0,-2.326486217E0,-2.006454509E-1,1.543753810E0,2.799280718E0
5.753227042E0,-2.516336100E0,1.368392889E0,1.697297600E0,3.329454251E0
5.763259042E0,-2.670070801E0,2.837056171E0,1.739992799E0,4.266818574E0
5.773291042E0,-2.847552508E0,3.977417005E0,1.960101877E0,5.269762868E0
5.783322042E0,-3.070265350E0,4.850016877E0,2.005025450E0,6.080240134E0
5.793354042E0,-3.182085164E0,5.301337726E0,1.963996707E0,6.487459498E0
5.803386042E0,-3.020406435E0,5.129630730E0,1.914802912E0,6.253194116E0
5.813417042E0,-2.487761342E0,4.235831777E0,1.939770523E0,5.281471104E0
5.823449042E0,-1.864301242E0,2.683273230E0,2.221920898E0,3.951266483E0
5.833481042E0,-1.674706298E0,9.555204070E-1,3.000600454E0,3.566688031E0
5.843512042E0,-1.537611018E0,-7.094081765E-1,4.093664914E0,4.430079010E0
5.853544042E0,-1.143953290E0,-2.137826827E0,5.507699414E0,6.017780780E0
5.863576042E0,-1.042600505E0,-2.984169778E0,6.913464782E0,7.601860323E0
5.873607042E0,-9.604249053E-1,-2.775708938E0,7.090655297E0,7.674918153E0
5.883639042E0,-1.088550849E0,-1.795745416E0,5.817227038E0,6.184640245E0
5.893671042E0,-1.991726835E0,-8.126308286E-1,4.343580174E0,4.847064408E0
5.903702042E0,-2.716011498E0,4.102640390E-2,3.188045231E0,4.188321145E0
5.913734042E0,-2.799742749E0,8.334919399E-1,2.354775485E0,3.752097528E0
5.923766042E0,-2.753849707E0,1.239045462E0,1.829748729E0,3.530850079E0
5.933797042E0,-2.667019724E0,1.233449092E0,1.453501452E0,3.278270480E0
5.943829042E0,-2.512903492E0,9.866404581E-1,1.211838952E0,2.959171675E0
5.953861042E0,-2.395526192E0,6.984107333E-1,9.667470610E-1,2.675990129E0
5.963892042E0,-2.231872128E0,4.910439080E-1,7.048888636E-1,2.391494434E0
5.973924042E0,-1.945505765E0,3.116209263E-1,4.140459450E-1,2.013339099E0
5.983956042E0,-1.571643859E0,1.573778093E-1,1.269524074E-1,1.584597459E0
5.993987042E0,-1.097719941E0,1.003376359E-1,-2.139870429E-1,1.122874509E0
6.004019042E0,-6.059195858E-1,7.823282182E-2,-5.134609634E-1,7.980608246E-1
6.014051042E0,-2.532699167E-1,-1.879061222E-2,-7.466538439E-1,7.886638704E-1
6.024082042E0,-1.517597314E-2,-9.640421391E-2,-8.938341822E-1,8.991460548E-1
6.034114042E0,1.839943349E-1,-1.174308014E-1,-9.315364440E-1,9.567675030E-1
6.044146042E0,4.361015694E-1,-2.422641778E-1,-8.614493052E-1,9.954754724E-1
6.054177042E0,7.120791847E-1,-4.470020950E-1,-7.232872007E-1,1.109059066E0
6.064209042E0,7.892169692E-1,-5.991285199E-1,-5.149272989E-1,1.116677452E0
6.074241042E0,7.513808792E-1,-6.401777279E-1,-2.805428289E-1,1.026209057E0
6.084272042E0,8.018791877E-1,-5.092340112E-1,-1.583092707E-1,9.630115965E-1
6.094304042E0,8.833963906E-1,-6.450239003E-2,-1.976300418E-1,9.075281674E-1
6.104336042E0,8.394843127E-1,2.918327790E-1,-2.991265959E-1,9.377510344E-1
6.114367042E0,8.225528227E-1,4.936336398E-1,-4.263538224E-1,1.049783263E0
6.124399042E0,7.713745560E-1,6.386188602E-1,-5.882548915E-1,1.161420067E0
6.134431042E0,6.884038816E-1,7.032218224E-1,-7.367690527E-1,1.229328871E0
6.144462042E0,6.325194103E-1,6.180518639E-1,-8.962267166E-1,1.259083491E0
6.154494042E0,5.508908546E-1,3.831399751E-1,-1.057136098E0,1.252123678E0
6.164526042E0,5.588800149E-1,7.058934152E-2,-1.177589325E0,1.305391261E0
6.174558042E0,6.021353775E-1,-2.061511892E-1,-1.260140900E0,1.411743750E0
6.184589042E0,7.121924014E-1,-4.166439360E-1,-1.285304539E0,1.527356522E0
6.194621042E0,9.024991710E-1,-5.048825133E-1,-1.244435572E0,1.618033064E0
6.204653042E0,1.211394052E0,-5.532629603E-1,-1.156695469E0,1.763950074E0
6.214684042E0,1.528422264E0,-5.801589829E-1,-1.044063039E0,1.939774908E0
6.224716042E0,1.799006408E0,-5.493348008E-1,-9.414004044E-1,2.103432314E0
6.234748042E0,2.028857970E0,-5.325848669E-1,-8.605429137E-1,2.267255038E0
6.244779042E0,2.254281874E0,-5.536664182E-1,-8.207790698E-1,2.462115260E0
6.254811042E0,2.442480942E0,-6.020492041E-1,-7.721540630E-1,2.631425145E0
6.264842042E0,2.631556069E0,-6.133863705E-1,-7.046890350E-1,2.792475035E0
6.274874042E0,2.774690938E0,-5.263874030E-1,-6.562353516E-1,2.899420345E0
6.284906042E0,2.878762313E0,-3.111157268E-1,-5.914406008E-1,2.955311733E0
6.294938042E0,2.975630504E0,4.015867710E-3,-5.496714543E-1,3.025976162E0
6.304969042E0,2.954574680E0,2.879911584E-1,-5.387221044E-1,3.017063465E0
6.315001042E0,2.841479005E0,4.850288773E-1,-5.976953673E-1,2.943891251E0
6.325033042E0,2.691313443E0,5.851273620E-1,-6.760761237E-1,2.835951517E0
6.335064042E0,2.533054751E0,5.655988312E-1,-7.675410484E-1,2.706545339E0
6.345096042E0,2.490225358E0,4.251399404E-1,-8.942598595E-1,2.679863243E0
6.355128042E0,2.545649654E0,5.105145514E-2,-1.016340805E0,2.741511817E0
6.365159042E0,2.606644884E0,-4.933886415E-1,-1.084852631E0,2.866170814E0
6.375191042E0,2.581001042E0,-1.031244773E0,-1.142694019E0,3.005125918E0
6.385223375E0,2.473295038E0,-1.307813396E0,-1.150069112E0,3.024933584E0
6.395254375E0,2.279527959E0,-1.421369247E0,-1.146136129E0,2.920644840E0
6.405286375E0,2.091418061E0,-1.536342464E0,-1.106688619E0,2.821194317E0
6.415318375E0,1.871449317E0,-1.695042914E0,-1.014742761E0,2.721248959E0
6.425349375E0,1.721512820E0,-1.896864824E0,-9.322625220E-1,2.725952304E0
6.435381375E0,1.711912715E0,-2.088694428E0,-8.034606403E-1,2.817594463E0
6.445413375E0,1.836675925E0,-2.254936616E0,-6.498936076E-1,2.980013305E0
6.455444375E0,2.014401022E0,-2.242274471E0,-4.970280947E-1,3.054937513E0
6.465476375E0,2.169312914E0,-1.925238438E0,-3.768917866E-1,2.924809221E0
6.475508375E0,2.112378429E0,-1.331585836E0,-3.706930071E-1,2.524416125E0
6.485539375E0,1.769041913E0,-6.159392649E-1,-5.074716604E-1,1.940726141E0
6.495571375E0,1.445092863E0,9.278069437E-2,-7.127276409E-1,1.613964786E0
6.505603375E0,1.207682971E0,7.003648728E-1,-1.036195099E0,1.738594086E0
6.515634375E0,6.725854091E-1,1.251827475E0,-2.633992311E0,2.992884672E0
6.525666375E0,-1.453884590E-2,2.049429206E0,-7.652554595E0,7.922244838E0
6.535698375E0,7.186120229E-2,2.773493428E0,-6.581609566E0,7.142479563E0
6.545729375E0,6.373277219E-1,2.538636503E0,-3.145548837E0,4.092106964E0
6.555761375E0,6.867641761E-1,1.690661595E0,-2.940119779E0,3.460388125E0
6.565793375E0,-1.294145602E-1,-1.018526495E-2,-3.833218819E0,3.835416325E0
6.575824375E0,-7.418191467E-1,-1.631857316E0,-3.472162024E0,3.907577647E0
6.585856375E0,-1.116905313E0,-2.252898862E0,-1.939758829E0,3.175798336E0
6.595888375E0,-1.170670461E0,-2.456802381E0,-5.344822884E-1,2.773448861E0
6.605919375E0,-1.071083900E0,-2.530052791E0,8.802749276E-1,2.885008110E0
6.615951375E0,-9.566150057E-1,-2.820350676E0,2.349695424E0,3.793488999E0
6.625983375E0,-1.026926605E0,-3.463895230E0,3.464766465E0,5.005772176E0
6.636014375E0,-1.290881467E0,-4.262845328E0,4.591586902E0,6.396944234E0
6.646046375E0,-1.351561825E0,-5.087675203E0,5.838322037E0,7.861117131E0
6.656078375E0,-1.295731440E0,-5.437804722E0,6.690233291E0,8.718248772E0
6.666109375E0,-1.502723459E0,-4.924097591E0,6.847714012E0,8.567152506E0
6.676141375E0,-1.466550829E0,-3.964446711E0,6.745716351E0,7.960671966E0
6.686173375E0,-1.289010797E0,-2.712230980E0,6.301893972E0,6.980803203E0
6.696204375E0,-1.105629981E0,-1.265067911E0,5.402676405E0,5.657890668E0
6.706236375E0,-5.741074070E-1,-2.748431093E-1,2.796713891E0,2.868230576E0
6.716268375E0,-2.782929665E-1,6.278506279E-2,-5.880967243E-1,6.536411068E-1
6.726299375E0,-7.009498867E-1,4.625796622E-1,-2.314867215E0,2.462502977E0
6.736331375E0,-1.686001364E0,6.497385103E-1,-2.290204682E0,2.917155844E0
6.746363375E0,-2.499814500E0,8.289580089E-1,-1.655191215E0,3.110611173E0
6.756394375E0,-3.094378975E0,8.889796776E-1,-1.187011748E0,3.431393740E0
6.766426375E0,-3.430954649E0,9.223883289E-1,-7.802080178E-1,3.637440664E0
6.776458375E0,-3.617613267E0,1.079216500E0,-1.750188589E-1,3.779214946E0
6.786489375E0,-3.761449510E0,1.374927152E0,3.923632269E-1,4.024037275E0
6.796521375E0,-3.981536953E0,1.648072230E0,8.865429966E-1,4.399401899E0
6.806553375E0,-4.220299233E0,1.913227673E0,1.343346341E0,4.824515016E0
6.816584375E0,-4.288253527E0,2.277324436E0,1.695193187E0,5.142859597E0
6.826616375E0,-4.192518819E0,2.777473043E0,1.796843523E0,5.340432305E0
6.836648375E0,-4.219102601E0,3.128389013E0,1.729881209E0,5.529930702E0
6.846679375E0,-4.583894305E0,3.218746036E0,1.609459265E0,5.827758761E0
6.856711375E0,-5.221659472E0,3.161587749E0,1.265400909E0,6.233987825E0
6.866743375E0,-5.840353360E0,3.181051961E0,5.117074565E-1,6.670132193E0
6.876774375E0,-6.278968209E0,3.238255271E0,-3.649690215E-1,7.074244932E0
6.886806375E0,-6.618169282E0,3.197486730E0,-9.573364791E-1,7.412191253E0
6.896838375E0,-6.823311242E0,2.874757848E0,-1.108007605E0,7.486620722E0
6.906869375E0,-6.673048325E0,2.334043597E0,-4.984669483E-1,7.087016492E0
6.916901375E0,-6.655669230E0,1.507397577E0,-3.156337973E-1,6.831530213E0
6.926933375E0,-6.401211269E0,2.983740592E-1,-9.453860128E-1,6.477521710E0
6.936964375E0,-5.411665914E0,-1.046679668E0,-1.275240312E0,5.657552841E0
6.946996375E0,-3.693587017E0,-2.127147473E0,-9.175322163E-1,4.359954907E0
6.957028375E0,-1.694260410E0,-2.948062636E0,-6.499437475E-1,3.461794118E0
6.967059375E0,5.152750620E-1,-3.471445740E0,-9.326613021E-1,3.631294675E0
6.977091375E0,2.896629943E0,-3.326344160E0,-8.849959695E-1,4.498694073E0
6.987123375E0,4.897495683E0,-2.459012629E0,-3.484858668E-1,5.491233876E0
6.997154375E0,6.101506968E0,-1.701385388E0,3.629296589E-1,6.344668428E0
7.007186375E0,6.466668509E0,-1.207305606E0,7.747133893E-1,6.623863621E0
7.017218375E0,7.043628480E0,-7.620144063E-1,8.842492801E-1,7.139696416E0
7.027249375E0,7.596089787E0,-5.679651994E-1,8.252818644E-1,7.661870182E0
7.037281375E0,7.781793848E0,-7.714652610E-1,4.201528502E-1,7.831219737E0
7.047313375E0,7.915474062E0,-1.705755597E0,-3.161209434E-1,8.103348952E0
7.057344375E0,8.275461987E0,-3.533957153E0,-2.897973633E-1,9.003116503E0
7.067376375E0,7.943033159E0,-5.169584169E0,6.995258705E-1,9.502931794E0
7.077408375E0,7.747390586E0,-6.092408701E0,1.481633576E0,9.966681630E0
7.087439375E0,7.711305664E0,-6.829398778E0,1.287232366E0,1.038084245E1
7.097471375E0,7.416456306E0,-7.151866874E0,7.979110479E-2,1.030336792E1
7.107503375E0,5.695989699E0,-4.660674094E0,-1.944729108E0,7.612368420E0
7.117534375E0,2.912819713E0,-9.024545860E-1,-3.238721879E0,4.448399979E0
7.127566375E0,6.196990246E-1,2.032230206E0,-3.483790382E0,4.080536964E0
7.137598375E0,-7.083381361E-1,3.236491166E0,-2.981677110E0,4.457243136E0
7.147629375E0,4.927573176E0,3.198139279E0,-1.285762230E0,6.013506196E0
7.157661375E0,4.850917348E0,1.347385013E0,-4.354585218E0,6.656519955E0
7.167693375E0,2.415882689E0,1.942744417E0,-4.855176460E0,5.760510698E0
7.177724375E0,-1.134166148E0,3.939522370E0,-5.236292129E0,6.650182299E0
7.187756375E0,-2.814276296E0,4.938020396E0,-4.393221281E0,7.183633462E0
7.197788375E0,-2.754081842E0,4.111817011E0,-2.096724409E0,5.374779918E0
7.207819375E0,-3.787347997E0,3.007347556E0,-2.228053019E-1,4.841258760E0
7.217851375E0,-5.569083484E0,2.113367924E0,2.073851271E0,6.307287367E0
7.227883375E0,-7.592951587E0,1.340207555E0,3.891561753E0,8.636742613E0
7.237914375E0,-8.974631104E0,8.862408417E-1,5.836855556E0,1.074236050E1
7.247946375E0,-8.937748622E0,1.629215544E-1,7.345565248E0,1.157010037E1
7.257978375E0,-7.603984698E0,-8.101837689E-1,7.242901005E0,1.053264430E1
7.268010375E0,-5.827559652E0,-8.433632094E-1,5.803974323E0,8.267879471E0
7.278041375E0,-4.857165098E0,-4.194143468E-1,4.746877255E0,6.804469477E0
7.288073375E0,-4.881432797E0,-3.602235675E-2,3.123312460E0,5.795236362E0
7.298105375E0,-4.539069842E0,1.204760313E-1,2.091925600E0,4.999382184E0
7.308136375E0,-4.163311685E0,3.703029978E-1,1.688446670E0,4.507897587E0
7.318168375E0,-3.570583235E0,5.812839872E-1,1.510418249E0,3.920244762E0
7.328200375E0,-2.872783243E0,5.577173692E-1,1.263362278E0,3.187478074E0
7.338231375E0,-2.171811868E0,3.689189619E-1,9.768784585E-1,2.409804870E0
7.348263375E0,-1.502813506E0,3.885357857E-2,7.642895579E-1,1.686444948E0
7.358295375E0,-9.845913745E-1,-3.613433093E-1,6.874184795E-1,1.254006909E0
7.368326375E0,-5.900259035E-1,-6.813006109E-1,7.346061677E-1,1.162732691E0
7.378358375E0,-2.628703870E-1,-8.413470894E-1,8.446232843E-1,1.220800663E0
7.388390750E0,5.973678136E-2,-8.760064602E-1,8.852659647E-1,1.246856700E0
7.398421750E0,3.763313675E-1,-8.980779451E-1,9.549572470E-1,1.363859464E0
7.408453750E0,7.072328661E-1,-8.668602455E-1,1.032444037E0,1.522355314E0
7.418485750E0,1.067063793E0,-7.839818108E-1,9.673761483E-1,1.639838172E0
7.428516750E0,1.267554731E0,-6.101826811E-1,7.200582220E-1,1.580348615E0
7.438548750E0,1.320742174E0,-3.485735750E-1,4.065906720E-1,1.425194514E0
7.448580750E0,1.421332410E0,-1.214367288E-1,1.587261772E-1,1.435314146E0
7.458611750E0,1.600151374E0,4.648010194E-2,-1.888225271E-1,1.611923934E0
7.468643750E0,1.731799827E0,1.218302464E-1,-5.367429681E-1,1.817158844E0
7.478675750E0,1.914833903E0,2.100857806E-1,-8.121117420E-1,2.090514384E0
7.488706750E0,2.093934557E0,3.671197736E-1,-8.796650630E-1,2.300684567E0
7.498738750E0,2.207197609E0,4.245780230E-1,-9.765988885E-1,2.450659742E0
7.508770750E0,2.232339174E0,2.956013095E-1,-1.022236407E0,2.472991224E0
7.518801750E0,2.127098941E0,6.186997354E-2,-1.016020378E0,2.358108396E0
7.528833750E0,2.011734545E0,-8.851164222E-2,-9.442189085E-1,2.224063744E0
7.538865750E0,1.792709249E0,-6.740962565E-2,-8.875601198E-1,2.001527785E0
7.548896750E0,1.507514814E0,-1.846901536E-2,-8.838412906E-1,1.747603343E0
7.558928750E0,1.310621375E0,1.103580093E-1,-8.944610037E-1,1.590587239E0
7.568960750E0,1.265109718E0,2.176099777E-1,-9.268696350E-1,1.583333200E0
7.578991750E0,1.357132029E0,2.412578720E-1,-9.932386024E-1,1.698980761E0
7.589023750E0,1.422302755E0,1.620292693E-1,-1.093289140E0,1.801243947E0
7.599055750E0,1.366697196E0,2.161072433E-2,-1.208202130E0,1.824302781E0
7.609086750E0,1.323159560E0,-1.147270489E-1,-1.339991208E0,1.886661060E0
7.619118750E0,1.335608574E0,-1.886393631E-1,-1.437704175E0,1.971402640E0
7.629150750E0,1.418345652E0,-2.047215450E-1,-1.497411264E0,2.072644637E0
7.639181750E0,1.548595012E0,-1.555423683E-1,-1.511260540E0,2.169388937E0
7.649213750E0,1.673426634E0,-6.950526774E-2,-1.504857254E0,2.251617871E0
7.659245750E0,1.704757039E0,4.351322472E-2,-1.462759933E0,2.246721297E0
7.669276750E0,1.684684425E0,1.235645306E-1,-1.421567176E0,2.207777851E0
7.679308750E0,1.709972902E0,1.123916709E-1,-1.407355810E0,2.217496243E0
7.689340750E0,1.771145595E0,7.379829347E-2,-1.382297275E0,2.247920965E0
7.699371750E0,1.829490720E0,-1.491098464E-2,-1.314938374E0,2.253069365E0
7.709403750E0,1.826888710E0,-1.557949680E-1,-1.141524576E0,2.159831657E0
7.719435750E0,1.710440533E0,-2.578774130E-1,-1.016273270E0,2.006220062E0
7.729466750E0,1.592202085E0,-2.528920770E-1,-9.392892672E-1,1.865831238E0
7.739498750E0,1.454155901E0,-2.375986844E-1,-8.926771644E-1,1.722757975E0
7.749530750E0,1.228442998E0,-1.466353047E-1,-8.665959513E-1,1.510484245E0
7.759561750E0,9.355751889E-1,-2.445422530E-2,-8.610472360E-1,1.271731609E0
7.769593750E0,5.908262777E-1,1.121835101E-1,-8.786236739E-1,1.064725500E0
7.779625750E0,2.592740936E-1,1.884931827E-1,-9.282766213E-1,9.820642652E-1
7.789656750E0,-6.940528035E-2,1.326867718E-1,-9.581414214E-1,9.697720638E-1
7.799688750E0,-3.017554309E-1,-1.082237756E-1,-9.403959990E-1,9.935357873E-1
7.809720750E0,-4.538203870E-1,-5.492786676E-1,-8.673245144E-1,1.122457933E0
7.819751750E0,-4.834975646E-1,-1.094834413E0,-7.236112095E-1,1.398586954E0
7.829783750E0,-3.538376771E-1,-1.584501302E0,-5.161394267E-1,1.703597777E0
7.839815750E0,-2.435079537E-1,-1.653100836E0,-4.027211308E-1,1.718785270E0
7.849846750E0,-3.526640240E0,5.627477288E-1,-8.681236826E-1,3.675257149E0
7.859878750E0,-4.364585419E0,-1.037553334E-1,2.477681619E-1,4.372843481E0
7.869910750E0,-2.360044703E0,-2.773329706E0,1.011778954E0,3.779532420E0
7.879941750E0,-2.677453496E0,-3.826412076E0,4.164096966E0,6.256987305E0
7.889973750E0,-2.800849919E0,-5.090896434E0,1.175420037E1,1.311194925E1
7.900005750E0,-1.344703479E0,-5.092006236E0,7.947458916E0,9.534089268E0
7.910036750E0,2.128320863E0,-3.895079437E0,1.460021536E0,4.672585623E0
7.920068750E0,3.979862603E0,-2.449305666E0,-1.118404247E-1,4.674496001E0
7.930100750E0,4.934053645E0,-1.274359721E0,-1.502655631E0,5.312894881E0
7.940131750E0,7.892791543E0,-3.620829821E-2,-9.425692336E0,1.229394751E1
7.950163750E0,1.332632254E1,2.241562865E0,-2.073169837E1,2.474709667E1
7.960195750E0,1.002073131E1,3.302792745E0,-1.268730957E1,1.650125208E1
7.970226750E0,7.001653073E0,3.084426137E0,-1.110506822E1,1.348552448E1
7.980258750E0,3.987949010E0,2.236835976E0,-8.584996042E0,9.726732726E0
7.990290750E0,6.896396175E-1,8.065468007E-1,-6.060719131E0,6.152921007E0
8.000321750E0,-1.128982956E0,-8.190528256E-1,-3.566402768E0,3.829448883E0
8.010353750E0,-2.160986479E0,-2.482283378E0,-1.741892560E0,3.723678694E0
8.020385750E0,-3.220665092E0,-3.930677286E0,-5.004924238E-1,5.106211926E0
8.030416750E0,-4.263657507E0,-4.774555051E0,1.134491984E0,6.500940188E0
8.040448750E0,-4.831878522E0,-5.105777013E0,2.517880057E0,7.466975890E0
8.050480750E0,-4.878041412E0,-5.328210944E0,3.073250939E0,7.850477133E0
8.060511750E0,-4.967562869E0,-5.164052119E0,3.982836789E0,8.197993902E0
8.070543750E0,-5.263113307E0,-4.739096950E0,5.063056086E0,8.705971429E0
8.080575750E0,-5.428446838E0,-4.228391780E0,5.894090441E0,9.060222638E0
8.090606750E0,-5.452425685E0,-3.942615547E0,5.909967971E0,8.955494661E0
8.100638750E0,-5.319865798E0,-3.585220277E0,5.577553761E0,8.500816578E0
8.110670750E0,-5.143233692E0,-3.019180566E0,4.841172963E0,7.681488122E0
8.120701750E0,-4.856176042E0,-2.171794472E0,3.924653485E0,6.610751996E0
8.130733750E0,-4.186788256E0,-1.163267301E0,2.835630620E0,5.188755893E0
8.140765750E0,-2.842012855E0,-2.713429660E-1,1.221390964E0,3.105231064E0
8.150796750E0,-5.434399304E-1,3.244859701E-1,-8.659645251E-1,1.072619533E0
8.160828750E0,6.901152885E-1,1.005730448E0,-9.244974196E-1,1.530505905E0
8.170860750E0,5.680283493E-1,1.620980326E0,3.593231694E-1,1.754806702E0
8.180891750E0,8.118771225E-2,1.704769757E0,1.061621643E0,2.009943253E0
8.190923750E0,-6.334765264E-1,1.761920443E0,9.878121670E-1,2.116938599E0
8.200955750E0,-1.302541254E0,2.002932732E0,8.665316319E-1,2.541501586E0
8.210986750E0,-1.923814934E0,2.240569423E0,7.794478067E-1,3.054300922E0
8.221018750E0,-2.493664106E0,2.458299853E0,8.141042539E-1,3.595047229E0
8.231050750E0,-2.903437563E0,2.621603816E0,9.437768590E-1,4.024111208E0
8.241081750E0,-3.075856166E0,2.778266510E0,9.468198232E-1,4.251602490E0
8.251113750E0,-3.063898317E0,3.062830031E0,8.715041772E-1,4.419040646E0
8.261145750E0,-3.046333281E0,3.415696632E0,8.748382596E-1,4.659664357E0
8.271176750E0,-3.004409915E0,3.657145123E0,8.578952944E-1,4.810111612E0
8.281208750E0,-3.037664199E0,3.890097610E0,7.300318178E-1,4.989309537E0
8.291240750E0,-3.278989314E0,4.060965530E0,3.885720384E-1,5.233946904E0
8.301271750E0,-3.848327148E0,4.231486711E0,2.743303084E-1,5.726286645E0
8.311303750E0,-4.435333805E0,4.214044467E0,5.829545367E-1,6.145745904E0
8.321335750E0,-4.871248409E0,3.875762576E0,9.393938593E-1,6.295479127E0
8.331366750E0,-4.724573051E0,3.526382670E0,7.084392929E-1,5.937916426E0
8.341398750E0,-4.795717878E0,2.704756485E0,-3.145322184E-1,5.514847969E0
8.351430750E0,-4.977466882E0,1.642699808E0,-1.220906814E0,5.381844728E0
8.361462750E0,-5.169199423E0,7.794034410E-1,-1.377313986E0,5.406023142E0
8.371493750E0,-4.474083303E0,2.807014346E-1,-9.854008484E-1,4.589905176E0
8.381525750E0,-3.264422731E0,-2.568605822E-1,-4.709464431E-1,3.308205507E0
8.391557667E0,-1.735325990E0,-1.060372093E0,-3.006907260E-1,2.055762676E0
8.401588667E0,2.155682762E-1,-2.066200190E0,-4.924127412E-1,2.134976162E0
8.411620667E0,2.257736848E0,-3.243769780E0,-6.712510014E-1,4.008739948E0
8.421652667E0,4.448877418E0,-4.615971546E0,-8.789633971E-1,6.470879403E0
8.431683667E0,6.769952475E0,-5.770535266E0,-1.403894259E0,9.005678923E0
8.441715667E0,1.022040671E1,-6.517443976E0,-2.773603356E0,1.243489706E1
8.451747667E0,1.406972233E1,-6.862290536E0,-3.486238611E0,1.603751781E1
8.461778667E0,1.556885955E1,-6.640833675E0,-1.528529415E0,1.699489516E1
8.471810667E0,1.440883043E1,-5.663448774E0,3.155994449E-1,1.548511057E1
8.481842667E0,1.191292070E1,-4.017423654E0,4.558734906E-1,1.258034948E1
8.491873667E0,8.378623828E0,-1.880514840E0,2.424431026E-2,8.587098526E0
8.501905667E0,5.001467364E0,2.914597267E-1,-3.687488810E-1,5.023504783E0
8.511937667E0,3.015145110E0,1.990181124E0,-3.891736438E-1,3.633645149E0
8.521968667E0,1.932765120E0,2.223110806E0,-5.452101749E-1,2.995839916E0
8.532000667E0,1.016420474E0,1.751058655E0,-9.846225109E-1,2.251399227E0
8.542032667E0,-1.576456118E-1,1.098564937E0,-1.501639824E0,1.867249105E0
8.552063667E0,-1.688529115E0,-5.172897202E-1,-2.452477196E0,3.022145533E0
8.562095667E0,-3.258955584E0,-2.624269561E0,-3.754581370E0,5.621784725E0
8.572127667E0,-4.027731126E0,-3.964185340E0,-3.365985943E0,6.577784187E0
8.582158667E0,-3.838779814E0,-4.034989859E0,-2.241019074E0,6.003294105E0
8.592190667E0,-2.833895166E0,-2.956011341E0,-1.325699444E0,4.304235574E0
8.602222667E0,-2.182521189E0,-1.450315304E0,-5.092772806E-1,2.669489946E0
8.612253667E0,-1.977744973E0,6.817911923E-2,-2.994359136E-3,1.978922064E0
8.622285667E0,-2.044743247E0,1.443945347E0,4.127958834E-2,2.503528933E0
8.632317667E0,-1.956667807E0,2.571816528E0,-2.677794535E-2,3.231641413E0
8.642348667E0,-1.823071501E0,3.520821383E0,5.309235267E-3,3.964820437E0
8.652380667E0,-1.841042918E0,4.211997356E0,1.011287276E-1,4.597889492E0
8.662412667E0,-2.007384802E0,4.578520714E0,2.698332149E-1,5.006521311E0
8.672443667E0,-2.211626290E0,4.416786729E0,4.794658363E-1,4.962779800E0
8.682475667E0,-2.511774395E0,3.496655425E0,7.713681972E-1,4.373856270E0
8.692507667E0,-2.644246866E0,1.969135240E0,1.113188823E0,3.479759250E0
8.702538667E0,-2.714354689E0,3.945584178E-1,1.375584379E0,3.068489874E0
8.712570667E0,-2.839365821E0,-9.160996485E-1,1.754041319E0,3.460909964E0
8.722602667E0,-2.881271938E0,-1.917656354E0,2.302803678E0,4.157167143E0
8.732633667E0,-2.658093072E0,-2.366278712E0,2.856981143E0,4.563669026E0
8.742665667E0,-2.086785020E0,-1.999584616E0,3.126358275E0,4.257596319E0
8.752697667E0,-1.597273813E0,-1.193801461E0,3.397819939E0,3.939749472E0
8.762728667E0,-1.547153673E0,-2.316327703E-1,3.752457662E0,4.065498337E0
8.772760667E0,-1.917540433E0,5.989636284E-1,3.758532919E0,4.261723647E0
8.782792667E0,-2.359189109E0,8.593068123E-1,3.209412711E0,4.074863360E0
8.792823667E0,-2.682092969E0,7.272269815E-1,2.446079172E0,3.702132507E0
8.802855667E0,-2.589876823E0,5.477747637E-1,1.985522062E0,3.309050772E0
8.812887667E0,-2.232137592E0,3.380965340E-1,1.880133601E0,2.937966959E0
8.822918667E0,-1.950639912E0,1.078372747E-1,1.959545807E0,2.767028138E0
8.832950667E0,-1.860986601E0,-6.400011420E-2,1.968090928E0,2.709381672E0
8.842982667E0,-1.767783592E0,-1.196474808E-1,1.881362686E0,2.584356768E0
8.853013667E0,-1.620145490E0,-1.101960415E-1,1.651251946E0,2.315955001E0
8.863045667E0,-1.424920262E0,-4.551238775E-2,1.309477513E0,1.935768707E0
8.873077667E0,-1.225602129E0,3.158081174E-2,8.933392885E-1,1.516955177E0
8.883108667E0,-1.017360560E0,4.627077162E-2,5.352611375E-1,1.150507704E0
8.893140667E0,-7.989742910E-1,-3.743153572E-2,2.431412601E-1,8.359896590E-1
8.903172667E0,-5.608915302E-1,-1.862554532E-1,3.965508565E-3,5.910212583E-1
8.913203667E0,-3.152071698E-1,-3.189784777E-1,-2.232430391E-1,5.009394012E-1
8.923235667E0,-6.948708655E-2,-3.942303890E-1,-3.581156462E-1,5.371153236E-1
8.933267667E0,1.585123518E-1,-4.185694242E-1,-4.923332191E-1,6.653709695E-1
8.943298667E0,3.903070535E-1,-3.841392642E-1,-5.539453304E-1,7.789467243E-1
8.953330667E0,5.899960096E-1,-3.285076851E-1,-5.958377069E-1,9.005749072E-1
8.963362667E0,7.873481259E-1,-2.192594773E-1,-6.377686751E-1,1.036697001E0
8.973393667E0,9.394649760E-1,-1.193679839E-1,-6.507224505E-1,1.149035624E0
8.983425667E0,1.077030591E0,1.394151628E-2,-6.715901399E-1,1.269339425E0
8.993457667E0,1.202419746E0,1.167601258E-1,-6.810421640E-1,1.386818157E0
9.003488667E0,1.280599139E0,2.068803370E-1,-7.082438497E-1,1.477952292E0
9.013520667E0,1.312158169E0,3.456195617E-1,-7.197828913E-1,1.536001092E0
9.023552667E0,1.288238818E0,4.770123446E-1,-7.311330678E-1,1.556166955E0
9.033583667E0,1.240630935E0,5.357382703E-1,-7.814553751E-1,1.561042316E0
9.043615667E0,1.143326103E0,4.667387867E-1,-8.457389331E-1,1.496767857E0
9.053647667E0,9.571223979E-1,2.738274479E-1,-9.331710331E-1,1.364504647E0
9.063678667E0,6.740131529E-1,-4.537439346E-4,-1.022262134E0,1.224464702E0
9.073710667E0,3.778489393E-1,-2.977016294E-1,-1.071875467E0,1.174867268E0
9.083742667E0,1.973567211E-1,-5.304634970E-1,-1.108590719E0,1.244714657E0
9.093773667E0,2.750691407E-1,-6.158252442E-1,-1.082585812E0,1.275498257E0
9.103805667E0,5.794101007E-1,-4.707780433E-1,-9.426163329E-1,1.202444835E0
9.113837667E0,9.593200008E-1,-2.564857757E-1,-7.738925864E-1,1.258963682E0
9.123868667E0,1.294881255E0,-8.931972742E-2,-5.893117757E-1,1.425476709E0
9.133900667E0,1.578420490E0,3.941900432E-2,-4.086877759E-1,1.630947822E0
9.143932667E0,1.824100172E0,7.938063025E-2,-2.204489471E-1,1.839086855E0
9.153963667E0,2.005996965E0,3.592470825E-2,-9.058754995E-2,2.008362645E0
9.163995667E0,2.131210264E0,-5.960710108E-2,-1.980598122E-3,2.132044587E0
9.174027667E0,2.158567193E0,-1.537092662E-1,3.242412642E-2,2.164275905E0
9.184058667E0,2.137924768E0,-1.642921418E-1,1.057527423E-2,2.144254196E0
9.194090667E0,2.052472974E0,-5.451651514E-2,-1.136347890E-2,2.053228309E0
9.204122667E0,1.966197307E0,9.681293428E-2,-3.896759927E-2,1.968964974E0
9.214153667E0,1.882893487E0,1.429375255E-1,-5.896624625E-2,1.889231600E0
9.224185667E0,1.773989827E0,2.563010037E-2,-4.707359433E-2,1.774799349E0
9.234217667E0,1.607630840E0,-2.010436463E-1,-5.254030243E-2,1.621004611E0
9.244248667E0,1.404302833E0,-4.385715795E-1,-9.123410583E-2,1.474020061E0
9.254280667E0,1.208625469E0,-5.935140234E-1,-1.215815936E-1,1.351967641E0
9.264312667E0,1.029528981E0,-5.749549609E-1,-1.811800700E-1,1.193033674E0
9.274343667E0,8.442150756E-1,-4.200218725E-1,-2.724954522E-1,9.815147674E-1
9.284375667E0,7.040285920E-1,-2.416893965E-1,-3.823020691E-1,8.367944160E-1
9.294407667E0,6.069580147E-1,-3.262220085E-2,-5.211406964E-1,8.006558968E-1
9.304438667E0,5.416115791E-1,2.062950307E-1,-6.979360856E-1,9.072020293E-1
9.314470667E0,5.112716196E-1,4.444854534E-1,-8.478801835E-1,1.085295717E0
9.324502667E0,5.281616675E-1,6.203240919E-1,-9.712505865E-1,1.267708337E0
9.334533667E0,5.668810525E-1,6.682005090E-1,-1.088962785E0,1.397743179E0
9.344565667E0,5.953312650E-1,5.615771163E-1,-1.166129660E0,1.424656645E0
9.354597667E0,5.859911419E-1,3.235112393E-1,-1.147274582E0,1.328263568E0
9.364629667E0,4.686642748E-1,-2.340114176E-2,-1.075361577E0,1.173284423E0
9.374660667E0,3.009507079E-1,-3.457043463E-1,-9.830776034E-1,1.084677094E0
9.384692125E0,1.621923336E-1,-5.934736776E-1,-8.799843210E-1,1.073727044E0
9.394724125E0,9.612405919E-2,-7.988501108E-1,-7.934418748E-1,1.130022718E0
9.404755125E0,2.446749117E-1,-1.109086416E0,-7.809593850E-1,1.378345404E0
9.414787125E0,6.095654344E-1,-1.638009757E0,-7.669496025E-1,1.908627170E0
9.424819125E0,1.039443081E0,-2.161195809E0,-7.121354641E-1,2.501668676E0
9.434850125E0,1.493705152E0,-2.416867068E0,-6.723420918E-1,2.919665288E0
9.444882125E0,1.852429786E0,-2.327161424E0,-6.376109464E-1,3.041993446E0
9.454914125E0,2.098652967E0,-2.128493502E0,-6.357737513E-1,3.055983823E0
9.464945125E0,2.202148977E0,-1.915822667E0,-7.153723365E-1,3.005261085E0
9.474977125E0,2.264217317E0,-1.707575251E0,-8.265980726E-1,2.953939348E0
9.485009125E0,2.369396740E0,-1.547962636E0,-9.310859160E-1,2.979454684E0
9.495040125E0,2.547848207E0,-1.415741887E0,-1.009873639E0,3.084752882E0
9.505072125E0,2.821402297E0,-1.324346398E0,-1.039118049E0,3.285417877E0
9.515104125E0,3.132896924E0,-1.169565922E0,-1.056582367E0,3.507034913E0
9.525135125E0,3.235206241E0,-8.668701857E-1,-1.225293980E0,3.566422392E0
9.535167125E0,3.084963789E0,-2.784256983E-1,-1.628360682E0,3.499440092E0
9.545199125E0,3.236079522E0,6.207848525E-1,-5.499847773E0,6.411389088E0
9.555230125E0,3.667517791E0,2.271631587E0,-9.278382263E0,1.023227122E1
9.565262125E0,3.080987682E0,3.008097754E0,-4.669979938E0,6.352153163E0
9.575294125E0,2.784280956E0,3.014634941E0,-3.011546441E0,5.090152870E0
9.585325125E0,2.184756580E0,2.150380214E0,-3.708791825E0,4.811697536E0
9.595357125E0,9.291024674E-1,2.187998861E-1,-4.091690894E0,4.201551994E0
9.605389125E0,-4.255433617E-1,-1.283301868E0,-3.401658052E0,3.660495641E0
9.615420125E0,-1.152474218E0,-2.245157733E0,-2.049442070E0,3.251021819E0
9.625452125E0,-1.475380125E0,-2.816844100E0,-4.264959097E-1,3.208310452E0
9.635484125E0,-1.796649688E0,-2.994383109E0,1.048213978E0,3.645961169E0
9.645515125E0,-1.926062603E0,-3.178472754E0,2.141687744E0,4.289432665E0
9.655547125E0,-1.954460191E0,-3.525247725E0,3.359073365E0,5.246966746E0
9.665579125E0,-2.367647838E0,-3.865093161E0,4.754027231E0,6.568521625E0
9.675610125E0,-2.902329224E0,-4.034109854E0,5.927446468E0,7.735126299E0
9.685642125E0,-2.899084604E0,-4.045456375E0,6.916684259E0,8.521204725E0
9.695674125E0,-2.891656301E0,-4.049872193E0,6.949821600E0,8.547699176E0
9.705705125E0,-3.045325514E0,-3.741213466E0,6.309364375E0,7.942214080E0
9.715737125E0,-2.752460409E0,-2.804785972E0,5.415955431E0,6.691444978E0
9.725769125E0,-2.240134975E0,-1.953600358E0,3.586406093E0,4.658011134E0
9.735800125E0,-8.181033839E-1,-1.303277711E0,-6.625235204E-1,1.675339772E0
9.745832125E0,6.124242112E-1,-2.943377262E-1,-3.393476043E0,3.460834836E0
9.755864125E0,5.453239033E-1,2.990973598E-1,-2.662448956E0,2.734130910E0
9.765895125E0,-1.358606404E-1,3.444109422E-1,-1.874644235E0,1.910855311E0
9.775927125E0,-8.579373944E-1,3.314821637E-1,-1.229740788E0,1.535642993E0
9.785959125E0,-1.617425511E0,3.874534661E-1,-1.923289561E-1,1.674268766E0
9.795990125E0,-2.299901412E0,5.028506058E-1,1.017097435E0,2.564545268E0
9.806022125E0,-2.644407957E0,7.297108787E-1,1.766628621E0,3.262874207E0
9.816054125E0,-2.896480546E0,9.568348610E-1,1.567398781E0,3.429558491E0
9.826085125E0,-3.157505223E0,1.109729025E0,1.106872076E0,3.525124613E0
9.836117125E0,-3.289276321E0,1.323381023E0,9.736982310E-1,3.676787224E0
9.846149125E0,-3.231598801E0,1.664892915E0,4.977606777E-1,3.669177690E0
9.856180125E0,-3.212026124E0,2.065839416E0,1.203013457E-2,3.819024619E0
9.866212125E0,-3.336809506E0,2.457342079E0,-1.142744744E-1,4.145586380E0
9.876244125E0,-3.644456665E0,2.735765439E0,9.108211476E-2,4.557935154E0
9.886275125E0,-4.172783882E0,2.967094154E0,5.947307559E-1,5.154558925E0
9.896307125E0,-4.709969923E0,3.236565426E0,1.107212457E0,5.821090263E0
9.906339125E0,-5.122707042E0,3.593447894E0,1.411931841E0,6.414713301E0
9.916370125E0,-5.583777537E0,3.851865590E0,1.569390342E0,6.962645055E0
9.926402125E0,-6.090108991E0,3.814089069E0,1.675964034E0,7.378723357E0
9.936434125E0,-6.442560439E0,3.464049597E0,2.095424573E0,7.609009710E0
9.946465125E0,-6.333858361E0,3.088215718E0,2.598147125E0,7.510339975E0
9.956497125E0,-6.086700064E0,2.850000152E0,2.321980791E0,7.110697106E0
9.966529125E0,-5.667505572E0,2.369665419E0,1.285044923E0,6.275928144E0
9.976560125E0,-4.748320933E0,1.527126083E0,-1.835791369E-2,4.987885601E0
9.986592125E0,-3.010156851E0,3.111894017E-1,-1.714161555E0,3.477963908E0
9.996624125E0,-4.207356714E-1,-1.097455720E0,-4.220292217E0,4.380901044E0
1.000665513E1,2.774762274E0,-2.338527242E0,-5.711093642E0,6.766432289E0
1.001668713E1,5.314972263E0,-3.349694431E0,-4.912846963E0,7.975302391E0
1.002671913E1,7.225080446E0,-3.818615398E0,-2.697922844E0,8.605951353E0
1.003675013E1,8.391104710E0,-3.553625432E0,5.752010922E-1,9.130703601E0
1.004678213E1,8.760103194E0,-3.262538173E0,2.973605613E0,9.809479784E0
1.005681413E1,9.080599024E0,-2.795005919E0,2.942665656E0,9.946286638E0
1.006684513E1,9.788435469E0,-2.004445991E0,1.191972452E0,1.006240881E1
1.007687713E1,1.105896760E1,-9.642543930E-1,-1.655470712E0,1.122368630E1
1.008690913E1,1.104924134E1,-2.506473309E-1,-2.129485189E0,1.125536608E1
1.009694013E1,9.786719896E0,1.920015121E-1,-1.829120153E-1,9.790311931E0
1.010697213E1,8.216408032E0,7.701858902E-1,1.196854293E0,8.338765344E0
1.011700413E1,6.619202485E0,1.352567984E0,1.869834900E0,7.009961786E0
1.012703513E1,4.997514061E0,1.358447360E0,1.825825247E0,5.491280712E0
1.013706713E1,2.934073173E0,6.043413126E-1,1.019584841E0,3.164422072E0
1.014709913E1,8.214064761E-1,-2.560717928E-1,3.544231296E-2,8.611257281E-1
1.015713013E1,-8.536392523E-1,-1.026709088E0,-9.045437962E-1,1.612771219E0
1.016716212E1,-1.873514115E0,-2.324764066E0,-1.984756077E0,3.585225207E0
1.017719413E1,-2.672329581E0,-4.985926634E0,-3.831568151E0,6.832402526E0
1.018722513E1,-3.683651721E0,-8.359196454E0,-6.329360683E0,1.111333712E1
1.019725713E1,-3.958520558E0,-9.532974125E0,-5.529996017E0,1.171018090E1
1.020728913E1,-3.379104171E0,-7.487152067E0,-2.202667771E0,8.504559741E0
1.021732013E1,-3.043463468E0,-4.147077475E0,3.320446658E-1,5.154723574E0
1.022735213E1,-3.101443581E0,-1.213042309E0,1.452790430E0,3.633321341E0
1.023738413E1,-3.145453527E0,9.674943352E-1,1.813306943E0,3.757393412E0
1.024741513E1,-3.122048877E0,2.839211454E0,2.110511559E0,4.718322786E0
1.025744713E1,-3.146442291E0,4.401543038E0,2.069433700E0,5.792774469E0
1.026747913E1,-3.316614101E0,5.472116768E0,1.895054526E0,6.673471561E0
1.027751013E1,-3.672391738E0,5.961656188E0,1.695289081E0,7.204291127E0
1.028754213E1,-3.793823789E0,5.799383674E0,1.336637245E0,7.057800583E0
1.029757412E1,-3.551323676E0,5.065693181E0,1.088600696E0,6.281576134E0
1.030760613E1,-2.973536324E0,3.837348708E0,9.870029855E-1,4.953921504E0
1.031763713E1,-2.457296763E0,2.329173451E0,8.928020024E-1,3.501492791E0
1.032766913E1,-1.925787199E0,7.741380233E-1,9.610846174E-1,2.287275597E0
1.033770113E1,-1.580262070E0,-6.070935971E-1,1.282524773E0,2.123831594E0
1.034773213E1,-1.233443391E0,-1.731181630E0,1.905262595E0,2.854539891E0
1.035776413E1,-9.243206875E-1,-2.504766507E0,2.747944604E0,3.831373583E0
1.036779613E1,-6.492420816E-1,-2.866581686E0,3.606195409E0,4.652252269E0
1.037782713E1,-4.357999261E-1,-2.616725484E0,4.411594402E0,5.147750868E0
1.038785917E1,-3.395814710E-1,-1.735810286E0,4.709438703E0,5.030622807E0
1.039789117E1,-3.380413509E-1,-5.458925450E-1,4.184606659E0,4.233580461E0
1.040792217E1,-3.842434908E-1,5.172727633E-1,3.251451852E0,3.314687515E0
1.041795417E1,-3.602558734E-1,1.181989501E0,2.422262878E0,2.719235357E0
1.042798617E1,-2.931419341E-1,1.409118746E0,1.751667935E0,2.267132194E0
1.043801717E1,-1.813363003E-1,1.105563469E0,1.221866927E0,1.657743112E0
1.044804917E1,-1.181490862E-1,6.050342077E-1,7.360720646E-1,9.601185778E-1
1.045808117E1,-1.331659054E-1,9.754442096E-2,3.911681656E-1,4.245710850E-1
1.046811217E1,-1.831905621E-1,-2.443118727E-1,2.105839268E-1,3.709348506E-1
1.047814417E1,-2.599007506E-1,-3.266172802E-1,1.008627889E-1,4.294188516E-1
1.048817617E1,-3.224154711E-1,-1.992023581E-1,1.021508574E-3,3.789912386E-1
1.049820717E1,-3.521420211E-1,2.912088811E-2,-1.206362450E-1,3.733699677E-1
1.050823917E1,-2.930656097E-1,2.097460574E-1,-2.556823683E-1,4.418759256E-1
1.051827117E1,-1.953901562E-1,2.795197123E-1,-3.321581749E-1,4.760647392E-1
1.052830217E1,-8.881310273E-2,3.498418361E-1,-3.755602294E-1,5.208863249E-1
1.053833417E1,4.695473140E-2,3.884492469E-1,-3.718466628E-1,5.397846837E-1
1.054836617E1,1.377426490E-1,4.492275453E-1,-3.155659696E-1,5.660038038E-1
1.055839717E1,2.094942982E-1,5.151753670E-1,-2.018616718E-1,5.916431816E-1
1.056842917E1,2.618505047E-1,5.375199169E-1,-8.387370385E-2,6.037616633E-1
1.057846117E1,3.329127581E-1,4.399895293E-1,2.415959872E-2,5.522729185E-1
1.058849217E1,4.306660708E-1,2.547649401E-1,5.970584594E-2,5.039277997E-1
1.059852417E1,5.135805389E-1,6.542858899E-2,-8.870226145E-3,5.178074460E-1
1.060855617E1,6.351701725E-1,-1.827161336E-1,-2.062720804E-1,6.923687634E-1
1.061858717E1,5.923658130E-1,-7.313054144E-2,-4.086928922E-1,7.233776418E-1
1.062861917E1,5.578099379E-1,1.776957142E-1,-5.537726913E-1,8.058485511E-1
1.063865117E1,6.625645240E-1,2.105325079E-1,-6.679029588E-1,9.640591515E-1
1.064868217E1,7.496086612E-1,1.714169741E-1,-8.019403642E-1,1.111037925E0
1.065871417E1,6.711687749E-1,2.024031240E-1,-8.677700722E-1,1.115553426E0
1.066874617E1,5.761502049E-1,2.297207308E-1,-9.204137242E-1,1.109901841E0
1.067877717E1,5.193407407E-1,2.103804803E-1,-9.503308569E-1,1.103224134E0
1.068880917E1,4.711315805E-1,1.237194818E-1,-9.336921662E-1,1.053115634E0
1.069884117E1,4.646972314E-1,2.769942999E-2,-8.803276987E-1,9.958351432E-1
1.070887217E1,4.583682782E-1,-8.853444636E-2,-7.777885862E-1,9.071355530E-1
1.071890417E1,4.535566045E-1,-2.013617349E-1,-7.064471465E-1,8.633236430E-1
1.072893617E1,4.967283518E-1,-2.246704906E-1,-6.745478077E-1,8.673123023E-1
1.073896717E1,6.035505498E-1,-1.772951800E-1,-6.927447814E-1,9.357361696E-1
1.074899917E1,8.013284531E-1,-9.392324030E-2,-7.738474166E-1,1.117939484E0
1.075903117E1,1.057112855E0,-2.603648186E-2,-8.410425957E-1,1.351117365E0
1.076906217E1,1.363318090E0,3.820570707E-2,-8.806193286E-1,1.623448889E0
1.077909417E1,1.693926095E0,4.995568693E-2,-8.869599031E-1,1.912741241E0
1.078912617E1,2.000316687E0,1.217799604E-1,-8.591916221E-1,2.180437445E0
1.079915717E1,2.256762702E0,3.364335859E-1,-7.913351230E-1,2.415031413E0
1.080918917E1,2.453165706E0,5.474578446E-1,-6.955694251E-1,2.607977932E0
1.081922117E1,2.564485874E0,6.168005598E-1,-5.969627112E-1,2.704328976E0
1.082925217E1,2.673473589E0,5.155788249E-1,-4.880727915E-1,2.766134054E0
1.083928417E1,2.793694389E0,1.825448102E-1,-4.067520551E-1,2.829045454E0
1.084931617E1,2.898795751E0,-3.001194531E-1,-3.268972157E-1,2.932567183E0
1.085934717E1,3.022176095E0,-7.107278931E-1,-2.154242885E-1,3.112087741E0
1.086937917E1,3.115599983E0,-9.555303472E-1,-1.125957388E-1,3.260778940E0
1.087941117E1,3.156302743E0,-1.132433179E0,-7.935504869E-2,3.354243452E0
1.088944217E1,3.082017084E0,-1.281382227E0,-1.152500823E-1,3.339768301E0
1.089947417E1,2.934135153E0,-1.436184338E0,-2.122920813E-1,3.273658882E0
1.090950617E1,2.766928759E0,-1.674093509E0,-3.272951187E-1,3.250477800E0
1.091953717E1,2.740030690E0,-2.139957553E0,-4.395135659E-1,3.504334271E0
1.092956917E1,2.779816023E0,-2.772645582E0,-5.161914669E-1,3.959974024E0
1.093960117E1,2.720498359E0,-3.414920121E0,-5.417948163E-1,4.399583205E0
1.094963217E1,2.470686595E0,-3.863643637E0,-5.555598928E-1,4.619597514E0
1.095966417E1,1.954478025E0,-3.696274105E0,-5.766039488E-1,4.220769921E0
1.096969617E1,1.224596992E0,-2.778620852E0,-6.432345061E-1,3.103888249E0
1.097972717E1,3.454458628E-1,-1.591938960E0,-9.544515359E-1,1.888009595E0
1.098975917E1,-7.517857258E-1,-5.055303848E-1,-1.741118973E0,1.962711906E0
1.099979117E1,-1.671042286E0,4.950270313E-1,-2.671969977E0,3.190118750E0
1.100982217E1,-1.131624509E0,1.103115824E0,-2.132804654E0,2.654485683E0
1.101985417E1,-2.464790518E-1,1.283130544E0,-7.805682063E-1,1.521992983E0
1.102988617E1,-2.070404959E-1,1.286020823E0,1.254754007E-1,1.308609721E0
1.103991717E1,-6.662061699E-1,8.150656092E-1,6.800311804E-2,1.054887213E0
1.104994917E1,-1.740855556E0,-3.731429905E-1,-2.965065755E0,3.458529845E0
1.105998117E1,-2.879430650E0,-1.609242625E0,-6.816286397E0,7.572485916E0
1.107001217E1,-3.281888072E0,-2.289852680E0,-6.767465655E0,7.862112057E0
1.108004417E1,-3.123776729E0,-2.375879256E0,-3.569975417E0,5.305422487E0
1.109007617E1,-3.098201593E0,-2.434423333E0,-4.747809740E-1,3.968713525E0
1.110010717E1,-2.841412346E0,-2.625962915E0,1.374106203E0,4.105785334E0
1.111013917E1,-2.752884040E0,-2.893827372E0,2.761047045E0,4.855511114E0
1.112017117E1,-2.960120764E0,-3.166626880E0,3.583533940E0,5.624193830E0
1.113020217E1,-2.919910632E0,-2.966856172E0,4.161938174E0,5.886411726E0
1.114023417E1,-2.600417891E0,-2.380797349E0,4.456489323E0,5.682487687E0
1.115026617E1,-2.338562471E0,-1.569196215E0,4.593491925E0,5.388081222E0
1.116029717E1,-2.133483223E0,-6.973798692E-1,4.445398325E0,4.979925262E0
1.117032917E1,-1.869097859E0,5.469719410E-2,4.410179375E0,4.790219276E0
1.118036117E1,-1.381754215E0,8.876658082E-1,4.319613022E0,4.621282501E0
1.119039317E1,-1.016610800E0,1.414951344E0,3.758774993E0,4.142942707E0
1.120042417E1,-8.928287534E-1,1.648779743E0,3.098647735E0,3.621772441E0
1.121045617E1,-8.724197781E-1,1.944748843E0,2.802533040E0,3.520987897E0
1.122048817E1,-1.119722502E0,1.986339503E0,2.533761095E0,3.408704796E0
1.123051917E1,-1.434583955E0,1.757972987E0,2.316735985E0,3.242802148E0
1.124055117E1,-1.688396968E0,1.427142788E0,1.992760184E0,2.976325589E0
1.125058217E1,-1.918908827E0,1.200808765E0,1.502211535E0,2.716761358E0
1.126061417E1,-2.082947054E0,1.083646935E0,8.874064111E-1,2.510069570E0
1.127064617E1,-2.074345946E0,1.033677800E0,1.816941134E-1,2.324739479E0
1.128067817E1,-1.768817233E0,9.603794432E-1,-5.100222158E-1,2.076334689E0
1.129070917E1,-1.178142472E0,8.795393479E-1,-1.067228100E0,1.816751212E0
1.130074117E1,-4.774384604E-1,7.738158417E-1,-1.385061693E0,1.656844692E0
1.131077317E1,8.229809850E-3,7.161085010E-1,-1.608615950E0,1.760830596E0
1.132080417E1,2.298746587E-1,7.293770027E-1,-1.662441909E0,1.829903350E0
1.133083617E1,1.929161628E-1,7.163722104E-1,-1.282834821E0,1.481914629E0
1.134086817E1,-8.574327797E-2,7.898202556E-1,-5.364878833E-1,9.586381981E-1
1.135089917E1,-4.644677281E-1,9.172018486E-1,3.842883682E-1,1.097573256E0
1.136093117E1,-9.552163517E-1,1.000719969E0,1.201854247E0,1.832575337E0
1.137096317E1,-1.670902684E0,8.127939659E-1,1.738612272E0,2.544665487E0
1.138099417E1,-2.505438936E0,2.769229639E-1,1.550800874E0,2.959542861E0
1.139102629E1,-3.099389454E0,-2.850751519E-1,1.011383609E0,3.272671636E0
1.140105829E1,-3.424396996E0,-6.087354952E-1,6.960619068E-1,3.547048896E0
1.141108929E1,-3.513765840E0,-5.429671830E-1,8.710761610E-1,3.660619814E0
1.142112129E1,-3.120633558E0,-1.520936805E-1,1.021171848E0,3.286986193E0
1.143115329E1,-2.381971470E0,1.765566766E-1,8.637672146E-1,2.539892545E0
1.144118429E1,-1.784436316E0,1.645125818E-1,4.834793651E-1,1.856079107E0
1.145121629E1,-1.294551472E0,1.983925188E-1,2.342850673E-1,1.330455786E0
1.146124829E1,-8.932769425E-1,2.322707015E-1,-6.755865656E-2,9.254499159E-1
1.147127929E1,-6.391467176E-1,1.292088479E-1,-6.382890042E-1,9.124781126E-1
1.148131129E1,-4.387794480E-1,1.226745844E-3,-1.230727652E0,1.306606085E0
1.149134329E1,-3.239388169E-1,-1.738675421E-1,-1.982417775E0,2.016220850E0
1.150137429E1,-1.827785526E-1,-3.323124683E-1,-2.544548038E0,2.572657050E0
1.151140629E1,1.135207683E-2,-4.199213004E-1,-2.763266648E0,2.795014371E0
1.152143829E1,2.395892228E-1,-2.446469182E-1,-2.577664329E0,2.600309309E0
1.153146929E1,3.345196460E-1,-4.459554434E-2,-2.071186695E0,2.098501008E0
1.154150129E1,3.610655665E-1,1.302011204E-1,-1.698359893E0,1.741191259E0
1.155153329E1,5.708681957E-1,2.921689939E-1,-1.364989225E0,1.508127581E0
1.156156429E1,8.259959556E-1,4.641069549E-1,-7.896219619E-1,1.233356164E0
1.157159629E1,1.044777131E0,6.650827736E-1,-1.296104785E-1,1.245268334E0
1.158162829E1,1.277095195E0,7.853050357E-1,5.276188266E-1,1.589357657E0
1.159165929E1,1.404330753E0,8.093563879E-1,1.181094219E0,2.005538876E0
1.160169129E1,1.587458677E0,7.584294784E-1,1.748098794E0,2.480139052E0
1.161172329E1,1.738415074E0,6.386059964E-1,2.140686700E0,2.830626104E0
1.162175429E1,1.739558790E0,4.699886692E-1,2.184985206E0,2.832157214E0
1.163178629E1,1.366250615E0,2.741981614E-1,1.557346247E0,2.089773363E0
1.164181829E1,7.112447870E-1,1.500951022E-1,5.803443396E-1,9.301597923E-1
1.165184929E1,1.761530726E-1,1.393742323E-1,-3.149555203E-1,3.868488870E-1
1.166188129E1,-3.208077791E-1,1.417476171E-1,-9.549999317E-1,1.017366644E0
1.167191329E1,-7.830478643E-1,1.731623679E-1,-1.303055516E0,1.530066287E0
1.168194429E1,-1.142973370E0,2.996750647E-1,-1.481185094E0,1.894756594E0
1.169197629E1,-1.384013726E0,5.056835818E-1,-1.493504008E0,2.098038155E0
1.170200829E1,-1.496101926E0,7.506918579E-1,-1.331577065E0,2.138914846E0
1.171203929E1,-1.532330397E0,9.187168622E-1,-1.092770931E0,2.094331737E0
1.172207129E1,-1.588554153E0,9.921853727E-1,-7.676307300E-1,2.024152427E0
1.173210329E1,-1.689708499E0,1.071691718E0,-3.400424874E-1,2.029597705E0
1.174213429E1,-1.855296237E0,8.175582772E-1,1.370283294E-1,2.032068510E0
1.175216629E1,-1.918084662E0,-2.858768052E-1,1.897129849E-1,1.948529019E0
1.176219829E1,-1.936927461E0,-1.994336155E0,1.990735732E-2,2.780190819E0
1.177222929E1,-1.814439403E0,-3.717847992E0,7.174182773E-2,4.137599658E0
1.178226129E1,-1.470687588E0,-5.404894838E0,9.853969015E-2,5.602278132E0
1.179229329E1,-1.083595187E0,-7.276694988E0,-4.229057193E-2,7.357054912E0
1.180232429E1,-7.501718212E-1,-9.240156675E0,-9.917906857E-1,9.323459760E0
1.181235629E1,4.121768095E-1,-8.796938313E0,-1.340509272E0,8.908028879E0
1.182238829E1,9.154563086E-1,-4.104867010E0,-3.818149229E-1,4.223005572E0
1.183241929E1,8.020318001E-1,-4.511734986E-1,7.652122486E-1,1.196813402E0
1.184245129E1,6.253563519E-1,1.692911603E0,1.440948064E0,2.309405029E0
1.185248329E1,2.766235133E-1,3.200489275E0,1.837150719E0,3.700645205E0
1.186251429E1,-9.563318543E-2,4.308693346E0,2.300694587E0,4.885404757E0
1.187254629E1,-4.316573200E-1,5.139361666E0,2.666936109E0,5.806196223E0
1.188257829E1,-7.898585549E-1,5.657974611E0,2.715187333E0,6.325250626E0
1.189260929E1,-1.048870035E0,5.719775003E0,2.404509562E0,6.292664036E0
1.190264129E1,-1.206690625E0,5.164217595E0,1.995940046E0,5.666482357E0
1.191267329E1,-1.278309223E0,3.799689716E0,1.759233062E0,4.377969549E0
1.192270429E1,-1.434064137E0,2.104694749E0,1.572192328E0,2.993003283E0
1.193273629E1,-1.660865061E0,3.250613362E-1,1.345743699E0,2.162212692E0
1.194276829E1,-1.848517999E0,-1.336703319E0,9.864604370E-1,2.485336747E0
1.195279929E1,-2.043195781E0,-2.508574213E0,4.791115316E-1,3.270648475E0
1.196283129E1,-1.998520130E0,-2.823167864E0,-1.515387615E-1,3.462271436E0
1.197286329E1,-1.300974492E0,-1.712903234E0,-7.151869798E-1,2.266729921E0
1.198289429E1,5.470613851E-2,1.633758831E-1,-9.200652301E-1,9.360579408E-1
1.199292629E1,1.781884737E0,1.637541395E0,-4.978681934E-1,2.470734258E0
1.200295829E1,3.719945681E0,2.642535678E0,3.927972364E-1,4.579877766E0
1.201298929E1,5.768662403E0,2.955901998E0,1.214931545E0,6.594761649E0
1.202302129E1,6.951181662E0,1.613950219E0,1.054442432E0,7.213571283E0
1.203305329E1,6.246657080E0,-1.565061648E0,9.260989720E-1,6.505982012E0
1.204308529E1,3.462181411E0,-4.847542335E0,1.062827339E0,6.051030389E0
1.205311629E1,4.387684114E-1,-6.487169432E0,1.390692415E0,6.649053343E0
1.206314829E1,-1.754170981E0,-6.449495237E0,1.587880408E0,6.869823057E0
1.207318029E1,-3.130810052E0,-4.419677008E0,1.581896367E0,5.642509420E0
1.208321129E1,-3.644185939E0,-1.341157728E0,1.350605659E0,4.111317411E0
1.209324329E1,-3.670833455E0,1.103691190E0,9.217071283E-1,3.942422672E0
1.210327529E1,-3.664207682E0,2.684282459E0,5.501656902E-1,4.575420477E0
1.211330629E1,-3.767556927E0,3.627459394E0,1.043932647E-1,5.231046244E0
1.212333829E1,-3.972257129E0,3.874631140E0,-5.369889897E-1,5.574939492E0
1.213337029E1,-4.332209386E0,3.194243279E0,-1.285436686E0,5.533857223E0
1.214340129E1,-4.615115221E0,1.583183924E0,-1.794270748E0,5.198573589E0
1.215343329E1,-4.568901167E0,-1.168267840E-1,-1.785916246E0,4.906934197E0
1.216346529E1,-3.940480436E0,-1.152594963E0,-1.316021132E0,4.311353945E0
1.217349629E1,-2.713561807E0,-1.450663798E0,-6.961899608E-1,3.154762050E0
1.218352829E1,-1.135314468E0,-1.320596579E0,-1.098691821E-1,1.744988682E0
1.219356029E1,2.849210412E-1,-1.033820472E0,5.001649432E-1,1.183270780E0
1.220359129E1,1.349432123E0,-6.861421055E-1,1.208318928E0,1.936954485E0
1.221362329E1,2.100901660E0,-3.426637942E-1,1.909745656E0,2.859778791E0
1.222365529E1,2.625193714E0,-1.239124399E-1,2.207553120E0,3.432242285E0
1.223368629E1,2.826492591E0,-1.043084800E-1,1.923749152E0,3.420636114E0
1.224371829E1,2.629716827E0,-5.068600416E-2,1.897141398E0,3.243011740E0
1.225375029E1,2.140259123E0,-8.030916810E-2,1.946572005E0,2.894184038E0
1.226378129E1,1.573589374E0,-1.345040864E-1,1.901031550E0,2.471476446E0
1.227381329E1,1.183271796E0,-2.325116068E-1,1.622580709E0,2.021623592E0
1.228384529E1,9.000390282E-1,-3.707432932E-1,1.049089306E0,1.431121663E0
1.229387629E1,6.923693170E-1,-4.448585057E-1,1.676227158E-1,8.398641177E-1
1.230390829E1,5.711905966E-1,-4.056482470E-1,-8.649675018E-1,1.113093876E0
1.231394029E1,5.184921635E-1,-3.429883146E-1,-1.800309168E0,1.904622851E0
1.232397129E1,5.363444073E-1,-3.220003188E-1,-2.404609550E0,2.484652212E0
1.233400329E1,5.616274389E-1,-2.656185418E-1,-2.480228081E0,2.556855476E0
1.234403529E1,5.121537452E-1,-1.499372274E-1,-2.039820476E0,2.108471059E0
1.235406629E1,4.092677466E-1,-4.541532397E-3,-1.166588008E0,1.236304289E0
1.236409829E1,2.290667928E-1,8.698142588E-2,-2.376262394E-1,3.413262276E-1
1.237413029E1,-3.469438098E-2,1.481164044E-1,5.061466082E-1,5.285135366E-1
1.238416129E1,-3.230058937E-1,1.987316573E-1,1.048022701E0,1.114530691E0
1.239419325E1,-6.086562654E-1,2.777474213E-1,1.422726386E0,1.572182066E0
1.240422525E1,-8.036852465E-1,4.178151333E-1,1.670346614E0,1.900141382E0
1.241425625E1,-9.354502047E-1,5.544347423E-1,1.765143428E0,2.073209177E0
1.242428825E1,-1.024991030E0,6.447028881E-1,1.651353834E0,2.047734824E0
1.243432025E1,-1.015924045E0,6.682168812E-1,1.340303450E0,1.809704065E0
1.244435125E1,-8.655181633E-1,5.268499178E-1,8.197503984E-1,1.303335430E0
1.245438325E1,-5.205820680E-1,3.195813257E-1,2.373894272E-1,6.553561272E-1
1.246441525E1,-1.418252206E-1,8.544653177E-2,-3.107404087E-1,3.521009863E-1
1.247444625E1,1.504743672E-1,-1.652370518E-1,-7.539967042E-1,7.864202747E-1
1.248447825E1,3.251996228E-1,-3.796895331E-1,-1.055917027E0,1.168280661E0
1.249451025E1,3.580948155E-1,-4.836857718E-1,-1.176090830E0,1.321125832E0
1.250454125E1,2.989912694E-1,-4.445421714E-1,-9.964615146E-1,1.131348342E0
1.251457325E1,2.414066471E-1,-3.223090518E-1,-6.808860433E-1,7.910537896E-1
1.252460525E1,1.909604518E-1,-1.451202911E-1,-3.867418599E-1,4.550769817E-1
1.253463625E1,1.941237224E-1,3.283620894E-2,-1.518129411E-1,2.486149740E-1
1.254466825E1,2.309951680E-1,1.689564657E-1,2.799054824E-2,2.875561262E-1
1.255470025E1,2.663279187E-1,2.476623273E-1,1.602797824E-1,3.974377905E-1
1.256473125E1,2.690916966E-1,2.179157871E-1,2.232858700E-1,4.120123920E-1
1.257476325E1,1.809663178E-1,6.450355947E-2,2.147962245E-1,2.881786519E-1
1.258479525E1,4.508088151E-2,-1.118426174E-1,1.873733678E-1,2.228224313E-1
1.259482625E1,-7.763805036E-2,-2.078480512E-1,1.819021281E-1,2.869091554E-1
1.260485825E1,-1.864872588E-1,-2.204078704E-1,2.256487298E-1,3.664348186E-1
1.261489025E1,-2.276156235E-1,-2.010424769E-1,3.246325891E-1,4.445371385E-1
1.262492125E1,-2.172051494E-1,-1.051153958E-1,4.454870083E-1,5.066418833E-1
1.263495325E1,-1.541056709E-1,1.739254296E-2,5.322334492E-1,5.543676603E-1
1.264498525E1,-7.812832111E-2,1.370271599E-1,6.083273596E-1,6.284446304E-1
1.265501625E1,3.447178479E-2,1.934925520E-1,6.177711245E-1,6.482814465E-1
1.266504825E1,8.670214824E-2,1.954613096E-1,5.663051748E-1,6.053296103E-1
1.267508025E1,1.773263895E-1,2.091075414E-1,4.906357723E-1,5.620445475E-1
1.268511125E1,3.044854959E-1,1.832154858E-1,3.383812934E-1,4.906946415E-1
1.269514325E1,4.386224137E-1,1.352911216E-1,1.637471813E-1,4.873463335E-1
1.270517525E1,5.933298361E-1,5.666302800E-2,-1.151309453E-2,5.961405409E-1
1.271520725E1,7.493353039E-1,-8.067286491E-2,-1.161788394E-1,7.625673948E-1
1.272523825E1,8.719156019E-1,-2.285547960E-1,-1.947146201E-1,9.221647873E-1
1.273527025E1,9.614632246E-1,-3.288725513E-1,-2.369636768E-1,1.043417688E0
1.274530125E1,9.851873519E-1,-3.661590761E-1,-2.802055907E-1,1.087741587E0
1.275533325E1,9.375168300E-1,-3.264640832E-1,-3.029372994E-1,1.037924666E0
1.276536525E1,8.016060497E-1,-2.278899676E-1,-3.266863505E-1,8.951145557E-1
1.277539625E1,6.335415767E-1,-1.147913682E-1,-2.863797388E-1,7.046739263E-1
1.278542825E1,4.414760742E-1,-3.032307565E-2,-1.719924132E-1,4.747652085E-1
1.279546025E1,2.655454882E-1,4.046331704E-2,1.200484537E-2,2.688787880E-1
1.280549225E1,1.168851465E-1,8.109561861E-2,1.932025301E-1,2.399288530E-1
1.281552325E1,-2.249157082E-2,1.278499550E-1,3.170681193E-1,3.426130091E-1
1.282555525E1,-6.952525791E-2,1.621105456E-1,3.975018331E-1,4.348807857E-1
1.283558725E1,-1.514216710E-1,1.629057670E-1,3.987520409E-1,4.565851525E-1
1.284561825E1,-2.724990701E-1,1.201994580E-1,3.506295291E-1,4.600486057E-1
1.285565025E1,-4.141223608E-1,4.500835776E-2,2.848944730E-1,5.046661696E-1
1.286568225E1,-5.631489940E-1,-4.180057526E-2,1.737494284E-1,5.908239513E-1
1.287571325E1,-7.197704659E-1,-1.333568627E-1,1.867659152E-2,7.322584185E-1
1.288574525E1,-9.045630920E-1,-1.987755114E-1,-1.599242717E-1,9.398520437E-1
1.289577725E1,-1.040836034E0,-2.165785289E-1,-2.744197708E-1,1.097976375E0
1.290580825E1,-1.100648592E0,-1.734903967E-1,-3.452758185E-1,1.166508307E0
1.291584025E1,-1.042166349E0,-6.853813827E-2,-3.509738570E-1,1.101812517E0
1.292587225E1,-9.130236476E-1,1.386667192E-2,-3.001855997E-1,9.612054203E-1
1.293590325E1,-7.010201995E-1,3.665034771E-2,-2.232128529E-1,7.366115298E-1
1.294593525E1,-4.633348667E-1,2.167387426E-2,-1.485841086E-1,4.870587160E-1
1.295596725E1,-2.104325571E-1,-3.269704521E-2,-5.895806015E-2,2.209683477E-1
1.296599825E1,2.624153640E-2,-1.002750707E-1,4.218122900E-2,1.119060504E-1
1.297603025E1,2.093682542E-1,-1.098194808E-1,1.099913889E-1,2.607556133E-1
1.298606225E1,3.076320288E-1,-8.384848773E-2,1.292187881E-1,3.440429178E-1
1.299609325E1,3.775954259E-1,-5.281731427E-2,1.719870776E-1,4.182672940E-1
1.300612525E1,3.921279861E-1,-3.397466183E-2,1.688887111E-1,4.283013330E-1
1.301615725E1,3.749430924E-1,-4.290219069E-2,1.398425212E-1,4.024659628E-1
1.302618825E1,3.512071975E-1,-4.123164117E-2,1.381281175E-1,3.796391980E-1
1.303622025E1,3.001280777E-1,-3.650650620E-2,1.352214666E-1,3.312014992E-1
1.304625225E1,2.491673275E-1,-3.523298264E-2,1.078985973E-1,2.738025337E-1
1.305628325E1,1.935409743E-1,-4.168889344E-2,9.689479530E-2,2.204193139E-1
1.306631525E1,1.437004775E-1,-6.332709968E-2,9.963589691E-2,1.859770436E-1
1.307634725E1,4.012469016E-2,-1.383538932E-1,9.691643000E-2,1.736219598E-1
1.308637825E1,-9.423365436E-2,-2.599145830E-1,6.247508727E-2,2.834408379E-1
1.309641025E1,-2.770388849E-1,-3.772459817E-1,2.753965482E-3,4.680519830E-1
1.310644225E1,-3.909773271E-1,-4.241219401E-1,-1.314687967E-2,5.769883282E-1
1.311647325E1,-4.580294686E-1,-4.432019895E-1,-3.687027611E-2,6.384186831E-1
1.312650525E1,-4.817958055E-1,-4.216351193E-1,3.729529560E-2,6.413223146E-1
1.313653725E1,-5.025232714E-1,-3.362131459E-1,1.707233481E-1,6.282637817E-1
1.314656825E1,-5.225650050E-1,-1.614305145E-1,3.543295741E-1,6.516774068E-1
1.315660025E1,-5.603120711E-1,1.579344642E-1,6.130500825E-1,8.454131036E-1
1.316663225E1,-6.371447772E-1,4.978535753E-1,8.948228002E-1,1.206034615E0
1.317666325E1,-8.013632441E-1,7.965650189E-1,1.203060016E0,1.650470321E0
1.318669525E1,-1.018831281E0,9.495644331E-1,1.524252761E0,2.064712152E0
1.319672725E1,-1.201439241E0,9.538995588E-1,1.807065625E0,2.370414899E0
1.320675825E1,-1.323003439E0,9.024890846E-1,2.014468703E0,2.573501273E0
1.321679025E1,-1.300812086E0,8.348683745E-1,2.192151554E0,2.682283676E0
1.322682225E1,-1.171954363E0,8.139522994E-1,2.312545139E0,2.717325964E0
1.323685325E1,-9.783109532E-1,8.173296511E-1,2.414136418E0,2.730050315E0
1.324688525E1,-7.855430905E-1,7.637586308E-1,2.466007653E0,2.698443799E0
1.325691725E1,-5.306790400E-1,6.778174245E-1,2.477794470E0,2.623074940E0
1.326694825E1,-2.957088983E-1,6.237207395E-1,2.427849308E0,2.524068853E0
1.327698025E1,-3.741788613E-2,4.797412401E-1,2.335729934E0,2.384782187E0
1.328701225E1,2.696324361E-1,2.347510904E-1,2.183603509E0,2.212675758E0
1.329704325E1,5.984570768E-1,-7.118926585E-2,1.961518072E0,2.052016553E0
1.330707525E1,9.293739974E-1,-3.091534013E-1,1.721361816E0,1.980504571E0
1.331710725E1,1.250614909E0,-3.642160463E-1,1.480397474E0,1.971869078E0
1.332713825E1,1.601668434E0,-2.965199071E-1,1.215678819E0,2.032520804E0
1.333717025E1,2.169378841E0,-2.078474665E-1,7.790701497E-1,2.314380138E0
1.334720225E1,2.781670759E0,-1.433000529E-1,4.814538896E-2,2.785775493E0
1.335723325E1,3.137811216E0,-1.275722122E-1,-8.993807048E-1,3.266652652E0
1.336726525E1,3.235556489E0,-3.065344334E-1,-1.959119545E0,3.794856854E0
1.337729725E1,3.094309393E0,-6.552571124E-1,-3.327794269E0,4.591113939E0
1.338732925E1,2.667272032E0,-1.081675254E0,-4.730496281E0,5.537323948E0
1.339735950E1,2.042562236E0,-1.384577982E0,-5.481847120E0,6.011635761E0
1.340739150E1,1.292465770E0,-1.480018575E0,-5.145900607E0,5.508286104E0
1.341742350E1,5.720885096E-1,-1.279657298E0,-4.114753482E0,4.346953449E0
1.342745450E1,-9.319197290E-2,-9.035257959E-1,-2.931214469E0,3.068723166E0
1.343748650E1,-4.127325142E-1,-5.429432094E-1,-2.119983464E0,2.226985708E0
1.344751850E1,-4.448139938E-1,-2.316614217E-1,-1.625533553E0,1.701142509E0
1.345754950E1,-4.886154862E-1,2.473372221E-4,-1.124757539E0,1.226305295E0
1.346758150E1,-5.811705146E-1,1.065567344E-1,-6.252590688E-1,8.602687998E-1
1.347761350E1,-6.598281732E-1,1.382229155E-1,-1.655696853E-1,6.941844951E-1
1.348764450E1,-6.046966406E-1,2.200546986E-1,2.588925628E-1,6.936191005E-1
1.349767650E1,-4.804232813E-1,3.200982195E-1,6.944867400E-1,9.030953612E-1
1.350770850E1,-2.893766561E-1,4.089583558E-1,1.074987209E0,1.185994640E0
1.351773950E1,-9.972521313E-2,3.884638649E-1,1.353369053E0,1.411544220E0
1.352777150E1,2.726191208E-3,3.226335722E-1,1.555283350E0,1.588397353E0
1.353780350E1,1.158766115E-1,1.858695370E-1,1.661207415E0,1.675584958E0
1.354783450E1,2.440593461E-1,3.446290433E-2,1.691526983E0,1.709390590E0
1.355786650E1,3.537087460E-1,-2.804675460E-2,1.679408628E0,1.716481820E0
1.356789850E1,5.089202350E-1,-4.426517665E-2,1.639846952E0,1.717573066E0
1.357792950E1,6.807065338E-1,8.042260408E-3,1.594603536E0,1.733835777E0
1.358796150E1,8.969685821E-1,6.968536198E-2,1.544339701E0,1.787286714E0
1.359799350E1,1.048901464E0,6.142850876E-2,1.478073791E0,1.813469017E0
1.360802450E1,1.167324684E0,1.056533396E-2,1.433126244E0,1.848407254E0
1.361805650E1,1.234286706E0,-1.806321859E-2,1.404926877E0,1.870189691E0
1.362808850E1,1.270913664E0,2.268602729E-2,1.372264330E0,1.870520139E0
1.363811950E1,1.234252353E0,1.682349193E-1,1.329592520E0,1.821948992E0
1.364815150E1,1.168854974E0,3.746936721E-1,1.245330634E0,1.748561033E0
1.365818350E1,1.068347330E0,4.969800013E-1,1.090148454E0,1.605234809E0
1.366821450E1,9.362905227E-1,3.750468439E-1,8.746200854E-1,1.335013248E0
1.367824650E1,8.241445079E-1,1.327844203E-1,7.059776151E-1,1.093275018E0
1.368827850E1,7.596484767E-1,-1.186318195E-1,5.859734541E-1,9.666975771E-1
1.369830950E1,7.551848584E-1,-2.769521999E-1,5.086147910E-1,9.516804596E-1
1.370834150E1,7.579005247E-1,-3.577835244E-1,4.358970630E-1,9.446843415E-1
1.371837350E1,7.909572467E-1,-4.038870656E-1,2.917392053E-1,9.347993859E-1
1.372840450E1,9.055358494E-1,-2.868550444E-1,2.467525005E-3,9.498879301E-1
1.373843650E1,1.076968903E0,-4.605325520E-2,-3.928913766E-1,1.147321470E0
1.374846850E1,1.278531417E0,1.205128688E-1,-7.492826790E-1,1.486805458E0
1.375849950E1,1.368941065E0,1.562130439E-1,-9.973940724E-1,1.700940061E0
1.376853150E1,1.266481767E0,1.637407494E-1,-1.035029676E0,1.643798507E0
1.377856350E1,9.757646370E-1,1.521217471E-1,-8.370078707E-1,1.294542324E0
1.378859450E1,6.135428566E-1,-1.468528211E-2,-3.473047292E-1,7.051744957E-1
1.379862650E1,3.822427198E-1,-2.268351299E-1,2.652098215E-1,5.175904968E-1
1.380865850E1,2.239915558E-1,-3.203350317E-1,8.217606711E-1,9.099875550E-1
1.381868950E1,2.121282130E-2,-2.305849493E-1,1.254537660E0,1.275728867E0
1.382872150E1,-2.141854828E-1,-2.929455042E-4,1.459800657E0,1.475429926E0
1.383875350E1,-3.829038937E-1,2.364994079E-1,1.444820091E0,1.513291927E0
1.384878450E1,-4.823811849E-1,4.129911804E-1,1.218022968E0,1.373620498E0
1.385881650E1,-4.924928480E-1,4.417881328E-1,8.079191422E-1,1.044250593E0
1.386884850E1,-3.584186051E-1,3.841486198E-1,2.117429181E-1,5.664531065E-1
1.387887950E1,6.468993947E-3,2.420267808E-1,-6.243422985E-1,6.696432754E-1
1.388891150E1,6.453161149E-1,1.016216844E-1,-1.708134245E0,1.828792622E0
1.389894350E1,1.496551284E0,3.797006428E-2,-2.715632890E0,3.100930420E0
1.390897450E1,2.309649890E0,1.803982973E-2,-3.218499284E0,3.961508007E0
1.391900650E1,2.737552055E0,-1.116291940E-2,-2.961902411E0,4.033259446E0
1.392903850E1,2.616410319E0,-6.543677509E-2,-2.120533541E0,3.368463659E0
1.393907050E1,2.032910529E0,-1.208391434E-1,-1.305041231E0,2.418772402E0
1.394910150E1,1.360492131E0,-1.409980041E-1,-9.202652049E-1,1.648547034E0
1.395913350E1,7.879954858E-1,-1.577391672E-1,-1.056229268E0,1.327192072E0
1.396916550E1,2.964387770E-1,-1.871758050E-1,-1.383439529E0,1.427170509E0
1.397919650E1,4.045805454E-2,-2.011763781E-1,-1.606680375E0,1.619731650E0
1.398922850E1,1.023032505E-1,-2.154272121E-1,-1.622125211E0,1.639562453E0
1.399926050E1,4.958459704E-1,-2.268982798E-1,-1.493955413E0,1.590361227E0
1.400929150E1,1.004274199E0,-2.212130320E-1,-1.300651141E0,1.658069740E0
1.401932350E1,1.379876967E0,-3.266804302E-1,-1.092883124E0,1.790299994E0
1.402935550E1,1.644930667E0,-4.431113577E-1,-9.159253284E-1,1.934182976E0
1.403938650E1,1.744988075E0,-6.072859704E-1,-8.225967499E-1,2.022484869E0
1.404941850E1,1.680126959E0,-8.841639107E-1,-7.458707555E-1,2.039827346E0
1.405945050E1,1.485395674E0,-1.222859200E0,-6.005966827E-1,2.015564761E0
1.406948150E1,1.287087501E0,-1.431179121E0,-4.119141233E-1,1.968385419E0
1.407951350E1,1.094501706E0,-1.445521756E0,-1.449582502E-1,1.818922766E0
1.408954550E1,9.556065072E-1,-1.345627924E0,1.947507267E-1,1.661874289E0
1.409957650E1,9.027628074E-1,-1.178252546E0,4.871490777E-1,1.562233648E0
1.410960850E1,8.935902071E-1,-8.841288275E-1,7.874492097E-1,1.483328520E0
1.411964050E1,9.143356897E-1,-4.900329244E-1,1.151999790E0,1.550240477E0
1.412967150E1,8.015525477E-1,-1.489233202E-1,1.635260688E0,1.827222526E0
1.413970350E1,4.327135465E-1,5.310616672E-2,2.145668528E0,2.189510153E0
1.414973550E1,-9.454224117E-2,2.226280582E-1,2.426484422E0,2.438509409E0
1.415976650E1,-4.985465435E-1,3.637348205E-1,2.152652442E0,2.239366923E0
1.416979850E1,-6.802688697E-1,4.877682978E-1,1.126616954E0,1.403548862E0
1.417983050E1,-6.627365783E-1,5.065296739E-1,-6.148709055E-1,1.036271351E0
1.418986150E1,-7.624289739E-1,3.480262756E-1,-2.157196898E0,2.314285783E0
1.419989350E1,-1.098285586E0,5.380724788E-2,-2.539946280E0,2.767752437E0
1.420992550E1,-1.298907648E0,-1.917559290E-1,-1.919947293E0,2.325968405E0
1.421995650E1,-1.187941528E0,-2.491463506E-1,-1.051131738E0,1.605664009E0
1.422998850E1,-1.054847352E0,-1.969681370E-1,-2.709764186E-1,1.106764474E0
1.424002050E1,-1.052055891E0,-1.661059481E-1,4.947633950E-1,1.174394993E0
1.425005150E1,-1.140838113E0,-4.365706623E-2,1.266641396E0,1.705226661E0
1.426008350E1,-1.214460990E0,1.357618225E-1,1.770542893E0,2.151317946E0
1.427011550E1,-1.292143735E0,2.836659729E-1,1.897191099E0,2.312884753E0
1.428014650E1,-1.213369461E0,5.087060076E-1,1.736906054E0,2.178965326E0
1.429017850E1,-1.052310245E0,6.652307081E-1,1.457029077E0,1.916460925E0
1.430021050E1,-8.938026072E-1,7.045076251E-1,1.174038019E0,1.635108365E0
1.431024150E1,-7.621377826E-1,6.114345700E-1,1.008461097E0,1.404172361E0
1.432027350E1,-6.604932940E-1,4.273724073E-1,8.447811592E-1,1.154362929E0
1.433030550E1,-4.935561642E-1,2.667341906E-1,6.618603730E-1,8.676427658E-1
1.434033650E1,-3.901955178E-1,1.042710578E-1,4.187296379E-1,5.817727265E-1
1.435036850E1,-4.159954798E-1,-1.928411722E-3,2.221439087E-1,4.715971524E-1
1.436040050E1,-4.226732925E-1,9.431558847E-4,1.090201847E-1,4.365077346E-1
1.437043150E1,-4.333488464E-1,1.028478456E-1,1.053787032E-2,4.455108851E-1
1.438046350E1,-5.069477499E-1,2.296055406E-1,-6.172786793E-2,5.599330809E-1
1.439049667E1,-6.125104576E-1,3.017443943E-1,-1.579625126E-1,7.008358550E-1
1.440052767E1,-8.024423477E-1,3.412405819E-1,-2.556846889E-1,9.086988039E-1
1.441055967E1,-9.706413066E-1,4.673925054E-1,-3.207840979E-1,1.124056377E0
1.442059167E1,-1.078309304E0,5.837351400E-1,-3.823798370E-1,1.284411153E0
1.443062267E1,-1.171574733E0,6.420143384E-1,-3.670262182E-1,1.385452276E0
1.444065467E1,-1.193748837E0,8.029542714E-1,-1.442589962E-1,1.445884679E0
1.445068667E1,-1.003142470E0,9.748957407E-1,1.965892375E-1,1.412573484E0
1.446071867E1,-9.757725307E-1,9.860428727E-1,-1.031565785E-2,1.387270338E0
1.447074967E1,-1.070268798E0,1.009622939E0,-6.896662223E-1,1.624947162E0
1.448078167E1,-9.961834064E-1,1.044565315E0,-1.280858316E0,1.929791725E0
1.449081267E1,-8.394824123E-1,9.630106902E-1,-1.583171645E0,2.034343326E0
1.450084467E1,-6.231281242E-1,8.450629950E-1,-1.787553467E0,2.073105767E0
1.451087667E1,-3.376112151E-1,7.753448886E-1,-1.640864367E0,1.845962324E0
1.452090867E1,-1.890404820E-3,8.835733420E-1,-1.247175431E0,1.528447572E0
1.453093967E1,2.274838784E-1,9.957305396E-1,-7.946436238E-1,1.294096871E0
1.454097167E1,3.020887953E-1,1.086347179E0,-3.909050775E-1,1.193404631E0
1.455100367E1,3.793995112E-1,1.157624738E0,-1.339409995E-1,1.225552616E0
1.456103467E1,4.108133850E-1,1.206461853E0,-6.118351956E-2,1.275955039E0
1.457106667E1,5.182501253E-1,1.237904670E0,-1.475078920E-2,1.342091186E0
1.458109867E1,6.871902189E-1,1.152256994E0,1.666474003E-1,1.351923790E0
1.459112967E1,8.766638334E-1,8.936317223E-1,5.958575875E-1,1.386421075E0
1.460116167E1,1.143269239E0,5.546551824E-1,9.717300582E-1,1.599676914E0
1.461119367E1,1.557761692E0,1.976873446E-1,1.108355514E0,1.922018138E0
1.462122467E1,2.049622456E0,-1.010042185E-1,9.798682129E-1,2.274048324E0
1.463125667E1,2.577933885E0,-3.139270681E-1,5.939607507E-1,2.664035040E0
1.464128867E1,3.164041533E0,-3.828826976E-1,1.989398181E-2,3.187185868E0
1.465131967E1,3.614691414E0,-2.832291859E-1,-6.167461807E-1,3.677851090E0
1.466135167E1,3.785865144E0,-1.339129329E-1,-1.280763592E0,3.998882711E0
1.467138367E1,3.632010282E0,-5.112805367E-3,-1.782654085E0,4.045909096E0
1.468141467E1,3.159017021E0,-1.373627901E-2,-1.969489582E0,3.722696124E0
1.469144667E1,2.484616124E0,-1.190370315E-1,-1.817859585E0,3.080925279E0
1.470147867E1,1.749898567E0,-2.056109065E-1,-1.691155100E0,2.442217519E0
1.471150967E1,9.985458277E-1,-1.199521208E-1,-1.664625113E0,1.944854506E0
1.472154167E1,1.781513585E-1,6.759264350E-2,-1.575212415E0,1.586694937E0
1.473157367E1,-7.014895847E-1,2.780421209E-1,-1.309146561E0,1.511045921E0
1.474160467E1,-1.586502365E0,2.613997757E-1,-7.472045785E-1,1.773029689E0
1.475163667E1,-2.538828292E0,-9.750957155E-1,-1.159070170E-1,2.722112266E0
1.476166867E1,-3.448929282E0,-3.143445008E0,2.839828920E-1,4.675147698E0
1.477169967E1,-3.918482918E0,-4.348754375E0,9.030463243E-1,5.922977769E0
1.478173167E1,-3.558387697E0,-4.562644354E0,1.697349055E0,6.029995051E0
1.479176367E1,-2.690484601E0,-5.259615503E0,2.135638799E0,6.281975462E0
1.480179467E1,-1.234730217E0,-6.624159755E0,2.214137669E0,7.092704476E0
1.481182667E1,5.060349995E-1,-6.806876473E0,2.340220596E0,7.215696167E0
1.482185867E1,1.548773060E0,-4.420962226E0,2.224275572E0,5.185653943E0
1.483188967E1,1.748748274E0,-1.895880738E0,1.623248461E0,3.047526844E0
1.484192167E1,1.674441419E0,2.775813603E-1,6.621813121E-1,1.821891755E0
1.485195367E1,1.608328705E0,2.578274778E0,-1.105510917E0,3.233632082E0
1.486198467E1,1.121038710E0,4.535440183E0,-2.810231484E0,5.452003892E0
1.487201667E1,4.040228672E-1,5.430921965E0,-2.774669888E0,6.112032465E0
1.488204867E1,-5.190185957E-2,5.449842970E0,-1.652663464E0,5.695153968E0
1.489207967E1,-4.861138281E-1,5.220844955E0,-5.114600462E-1,5.268312830E0
1.490211167E1,-1.126428819E0,4.579825813E0,3.960781822E-1,4.732919214E0
1.491214367E1,-1.660675173E0,3.426028662E0,1.029753149E0,3.944097611E0
1.492217467E1,-1.854881670E0,1.728515884E0,1.305387971E0,2.851734722E0
1.493220667E1,-1.811199899E0,3.802385867E-2,1.424405707E0,2.304522186E0
1.494223867E1,-1.559619499E0,-1.395881234E0,1.546732382E0,2.602552298E0
1.495227067E1,-1.127138818E0,-2.489321671E0,1.629347692E0,3.181499363E0
1.496230167E1,-6.730621033E-1,-3.134770664E0,1.833186892E0,3.693287680E0
1.497233367E1,-2.772830062E-1,-3.150610771E0,2.203946557E0,3.854946760E0
1.498236567E1,2.361592187E-2,-2.248567244E0,2.545294728E0,3.396341799E0
1.499239667E1,1.265204900E-1,-8.077840716E-1,2.531892325E0,2.660639262E0
1.500242867E1,3.846208007E-2,3.895958859E-1,2.224055132E0,2.258248329E0
1.501246067E1,-3.117416530E-2,1.222518892E0,1.829350533E0,2.200465324E0
1.502249167E1,-2.057929376E-2,1.717992650E0,1.419332078E0,2.228547913E0
1.503252367E1,9.681417681E-3,1.750247061E0,1.037174362E0,2.034499733E0
1.504255567E1,4.327677794E-2,1.301414788E0,6.850077456E-1,1.471322174E0
1.505258667E1,6.233062450E-2,6.287663019E-1,4.512774694E-1,7.764557447E-1
1.506261867E1,6.784816682E-2,-3.229651093E-2,4.090489876E-1,4.158936314E-1
1.507265067E1,5.052871406E-2,-5.011256772E-1,4.602325168E-1,6.822712546E-1
1.508268167E1,6.141615652E-2,-6.795429379E-1,5.440851706E-1,8.726850644E-1
1.509271367E1,8.036219504E-2,-6.296562481E-1,5.706847394E-1,8.535842928E-1
1.510274567E1,6.647980873E-2,-3.748228955E-1,5.265224737E-1,6.497212351E-1
1.511277667E1,5.000546135E-2,3.994817734E-3,3.735768539E-1,3.769299278E-1
1.512280867E1,1.319363547E-1,3.325533736E-1,2.354053938E-1,4.282693632E-1
1.513284067E1,2.071968175E-1,5.533424824E-1,1.103035571E-1,6.010701280E-1
1.514287167E1,2.914842850E-1,7.511093491E-1,1.877592109E-2,8.059037647E-1
1.515290367E1,3.726496316E-1,8.356671041E-1,-1.320769072E-2,9.150856244E-1
1.516293567E1,4.473504794E-1,8.263770479E-1,-3.836650550E-2,9.404751275E-1
1.517296667E1,5.260834209E-1,7.412310630E-1,-6.047665514E-2,9.109581112E-1
1.518299867E1,5.971906795E-1,6.612551862E-1,-4.819282450E-2,8.923103033E-1
1.519303067E1,6.406691864E-1,5.423812920E-1,-2.892266750E-2,8.399232066E-1
1.520306167E1,7.052212778E-1,3.505166048E-1,-2.860172845E-2,7.880463183E-1
1.521309367E1,7.812013136E-1,1.947146201E-1,-5.608422674E-2,8.070531061E-1
1.522312567E1,8.708652958E-1,1.393110824E-1,-4.176680759E-2,8.829260486E-1
1.523315667E1,9.540339717E-1,9.625218630E-2,1.445365928E-2,9.589860326E-1
1.524318867E1,1.032522609E0,1.678443253E-2,9.888043664E-2,1.037382281E0
1.525322067E1,1.021446448E0,-6.284002662E-3,1.936422408E-1,1.039658430E0
1.526325167E1,9.129690492E-1,8.089388967E-2,2.703985675E-1,9.556001735E-1
1.527328367E1,8.108601455E-1,1.477948076E-1,2.895919798E-1,8.736137565E-1
1.528331567E1,6.898376188E-1,2.095753187E-1,2.657699847E-1,7.683953666E-1
1.529334667E1,5.649212120E-1,2.116738844E-1,1.852228349E-1,6.310699705E-1
1.530337867E1,4.567659950E-1,1.165314996E-1,9.891749337E-2,4.816631967E-1
1.531341067E1,3.822207928E-1,-1.562142134E-2,-2.110844851E-2,3.831218211E-1
1.532344167E1,3.481568878E-1,-1.494653571E-1,-1.675354461E-1,4.142719363E-1
1.533347367E1,3.412576850E-1,-2.154389066E-1,-3.006847326E-1,5.032713368E-1
1.534350567E1,3.502480714E-1,-2.319625533E-1,-4.003413141E-1,5.803046660E-1
1.535353667E1,3.973335063E-1,-2.069271147E-1,-4.815696645E-1,6.577249333E-1
1.536356867E1,4.452480034E-1,-1.636366689E-1,-6.061618432E-1,7.697109354E-1
1.537360067E1,5.359030156E-1,-7.797145128E-2,-7.039410299E-1,8.881467012E-1
1.538363167E1,7.135265167E-1,-9.973712683E-2,-8.304354541E-1,1.099404670E0
1.539366375E1,9.801826470E-1,-2.582019335E-1,-9.595244341E-1,1.395748330E0
1.540369575E1,1.343472348E0,-4.129432333E-1,-1.028036991E0,1.741350085E0
1.541372775E1,1.765798755E0,-4.857475001E-1,-1.056524625E0,2.114294246E0
1.542375875E1,2.106749461E0,-4.172678339E-1,-1.106184297E0,2.415812376E0
1.543379075E1,2.421656668E0,-2.563565522E-1,-1.153965989E0,2.694768488E0
1.544382275E1,2.733530633E0,-1.410015124E-1,-1.169331302E0,2.976475574E0
1.545385375E1,3.048678600E0,-1.847112036E-1,-1.188273504E0,3.277278345E0
1.546388575E1,3.295049277E0,-2.584176958E-1,-1.156523708E0,3.501667678E0
1.547391775E1,3.432773425E0,-2.379945409E-1,-1.128884650E0,3.621457627E0
1.548394875E1,3.513893602E0,-1.563393438E-1,-1.106652074E0,3.687352580E0
1.549398075E1,3.557141948E0,-2.218421924E-1,-1.048796507E0,3.715164452E0
1.550401275E1,3.630603734E0,-5.790123439E-1,-1.018453404E0,3.814942477E0
1.551404375E1,3.776886159E0,-1.289115754E0,-9.717781515E-1,4.107437311E0
1.552407575E1,3.934026279E0,-2.238442791E0,-8.932165700E-1,4.613569630E0
1.553410775E1,3.870166790E0,-3.261507894E0,-9.571858402E-1,5.150905693E0
1.554413875E1,3.397031735E0,-4.134393695E0,-1.274500054E0,5.500671433E0
1.555417075E1,2.461494187E0,-4.642327285E0,-2.034104238E0,5.634512961E0
1.556420275E1,9.506292111E-1,-4.034218612E0,-2.444139651E0,4.811697657E0
1.557423375E1,6.265773967E-2,-2.713557129E0,-1.965521076E0,3.351207452E0
1.558426575E1,-1.454106785E-1,-1.677520562E0,-1.501797845E0,2.256239409E0
1.559429775E1,-2.294038117E-1,-7.635264963E-1,-1.087237126E0,1.348214889E0
1.560432875E1,-4.947041919E-1,2.036058962E-2,-7.006011003E-1,8.578978336E-1
1.561436075E1,-8.401719452E-1,5.866733658E-1,-5.036604818E-1,1.141818031E0
1.562439275E1,-1.475680233E0,9.668061179E-1,-6.621784616E-1,1.884363695E0
1.563442375E1,-2.247220484E0,7.786117280E-1,-1.480120901E0,2.801248652E0
1.564445575E1,-2.798141196E0,1.328177494E-1,-2.372811806E0,3.671167468E0
1.565448775E1,-2.761299645E0,-4.532592005E-1,-2.353829405E0,3.656601222E0
1.566451875E1,-2.443318702E0,-8.394344652E-1,-1.510041103E0,2.992437240E0
1.567455075E1,-2.334875071E0,-1.391515703E0,-1.687717120E-1,2.723314422E0
1.568458275E1,-2.373084725E0,-1.953913769E0,1.585766054E0,3.458896371E0
1.569461375E1,-2.351773670E0,-2.357272831E0,3.144823197E0,4.580118725E0
1.570464575E1,-1.965344198E0,-2.578375350E0,4.107895868E0,5.233106699E0
1.571467775E1,-1.549761532E0,-2.593541273E0,4.454834561E0,5.382728686E0
1.572470875E1,-1.455293331E0,-2.547586836E0,4.215029722E0,5.135616120E0
1.573474075E1,-1.344397670E0,-2.584330739E0,4.082749332E0,5.015477303E0
1.574477275E1,-1.283885712E0,-2.262627459E0,3.923299270E0,4.707453951E0
1.575480375E1,-1.149679103E0,-1.470135611E0,3.645441921E0,4.095400780E0
1.576483575E1,-8.384663124E-1,-6.691126746E-1,3.412050308E0,3.576705863E0
1.577486775E1,-4.780250823E-1,4.205317497E-3,2.949488772E0,2.987977524E0
1.578489875E1,-2.340087864E-1,5.449388641E-1,2.346699311E0,2.420478492E0
1.579493075E1,-2.595057164E-1,8.825062251E-1,1.890588423E0,2.102494956E0
1.580496275E1,-5.198680499E-1,9.793443024E-1,1.582971085E0,1.932660216E0
1.581499475E1,-9.415952629E-1,9.222158360E-1,1.346200951E0,1.883969397E0
1.582502575E1,-1.361940194E0,8.792306149E-1,1.206735429E0,2.020925027E0
1.583505775E1,-1.728411219E0,8.501781392E-1,1.111303169E0,2.223781227E0
1.584508975E1,-1.916161513E0,8.676683307E-1,1.042273280E0,2.347521430E0
1.585512075E1,-1.940630941E0,9.083713835E-1,1.011740143E0,2.369558005E0
1.586515275E1,-1.953541009E0,1.010360858E0,1.039210435E0,2.432511020E0
1.587518475E1,-1.991620708E0,1.163707012E0,1.183534847E0,2.592589784E0
1.588521575E1,-2.097159735E0,1.296164573E0,1.393856928E0,2.832129709E0
1.589524775E1,-2.321795727E0,1.425541236E0,1.567369545E0,3.143175226E0
1.590527975E1,-2.691231875E0,1.592187467E0,1.661313250E0,3.540868770E0
1.591531075E1,-3.172300433E0,1.831105868E0,1.623056087E0,4.006338702E0
1.592534275E1,-3.754821983E0,2.150279642E0,1.517111557E0,4.585195540E0
1.593537475E1,-4.378073191E0,2.483227703E0,1.312281253E0,5.201540808E0
1.594540575E1,-4.910096433E0,2.913643586E0,1.011513344E0,5.798407124E0
1.595543775E1,-5.283602536E0,3.368735889E0,7.109103262E-1,6.306364304E0
1.596546975E1,-5.634600366E0,3.466332934E0,4.312192905E-1,6.629489828E0
1.597550075E1,-5.793505468E0,3.162416884E0,3.725120759E-1,6.610926668E0
1.598553275E1,-5.656225124E0,2.668856335E0,2.677001323E-1,6.259979245E0
1.599556475E1,-5.222368155E0,2.081542699E0,-5.263792169E-1,5.646505488E0
1.600559575E1,-4.649838911E0,1.200317599E0,-1.683201132E0,5.088706151E0
1.601562775E1,-3.759571384E0,1.705001307E-1,-2.483968545E0,4.509273447E0
1.602565975E1,-2.353218079E0,-8.522942466E-1,-3.243204355E0,4.096634630E0
1.603569075E1,-6.844143994E-1,-1.750378624E0,-4.071251952E0,4.484120968E0
1.604572275E1,9.855650090E-1,-2.462363668E0,-4.580538003E0,5.293004971E0
1.605575475E1,2.491464968E0,-2.869883609E0,-4.331668226E0,5.762549717E0
1.606578575E1,3.737807755E0,-2.687248167E0,-3.153859484E0,5.580263360E0
1.607581775E1,4.708451693E0,-1.917078649E0,-1.492756734E0,5.298398867E0
1.608584975E1,5.303939736E0,-8.937872583E-1,4.164457154E-1,5.394817831E0
1.609588075E1,5.581519343E0,-1.040184581E-1,2.185320252E0,5.994981452E0
1.610591275E1,6.069687590E0,3.825324494E-1,2.773821457E0,6.684423983E0
1.611594475E1,7.315285442E0,5.234292966E-1,1.486947525E0,7.483207352E0
1.612597575E1,9.557527753E0,1.682419360E-2,-1.035858226E0,9.613512473E0
1.613600775E1,9.889964182E0,-8.934732628E-1,-9.305427097E-2,9.930676971E0
1.614603975E1,8.233740349E0,-1.530894613E0,2.453635529E0,8.726880643E0
1.615607075E1,5.993170926E0,-1.851720811E0,3.217122849E0,7.049599076E0
1.616610275E1,3.627441560E0,-1.605217402E0,2.506241759E0,4.692153336E0
1.617613475E1,1.975352146E0,-8.318459487E-1,1.402025489E0,2.561183175E0
1.618616675E1,1.275557085E0,-1.823512673E-2,7.870878518E-2,1.278113246E0
1.619619775E1,9.592075150E-1,-8.741254109E-1,-1.565673852E0,2.033595068E0
1.620622975E1,5.850408232E-1,-2.560925505E0,-2.905765632E0,3.917152807E0
1.621626175E1,-6.974456504E-2,-3.836792053E0,-3.171076611E0,4.978108520E0
1.622629275E1,-6.933121075E-1,-4.713790201E0,-2.330143504E0,5.303778699E0
1.623632475E1,-1.270095200E0,-5.016664862E0,-1.221013818E0,5.317042684E0
1.624635675E1,-2.034790117E0,-4.980393999E0,-3.785429672E-1,5.393328284E0
1.625638775E1,-2.889572938E0,-4.423784677E0,1.121886995E-1,5.285081734E0
1.626641975E1,-3.505709839E0,-2.954139063E0,2.811849993E-1,4.593038654E0
1.627645175E1,-3.594921978E0,-9.719715482E-1,2.853114525E-1,3.734915707E0
1.628648275E1,-3.421987359E0,9.736029214E-1,2.291459495E-1,3.565165914E0
1.629651475E1,-3.290660357E0,2.648056619E0,-2.650752624E-1,4.232128819E0
1.630654675E1,-3.335231343E0,3.901795549E0,-9.889599755E-1,5.227410301E0
1.631657775E1,-3.461991962E0,4.642441891E0,-1.328086716E0,5.941503966E0
1.632660975E1,-3.403689959E0,4.882292923E0,-1.076883973E0,6.048269886E0
1.633664175E1,-2.741402739E0,4.767614990E0,-5.724664225E-1,5.529300090E0
1.634667275E1,-2.089021288E0,4.615079845E0,-2.129796042E-1,5.070338473E0
1.635670475E1,-1.645976442E0,4.149070791E0,2.363420812E-1,4.469886403E0
1.636673675E1,-1.366345194E0,3.057275761E0,9.277198201E-1,3.474837886E0
1.637676775E1,-1.362737462E0,1.447119800E0,1.665991607E0,2.593595408E0
1.638679975E1,-1.509980146E0,-1.440601909E-1,2.270958572E0,2.730942368E0
1.639683225E1,-1.739891350E0,-1.565089715E0,2.800152054E0,3.649325862E0
1.640686325E1,-1.863277394E0,-2.657009876E0,3.257791404E0,4.598337630E0
1.641689525E1,-1.715245628E0,-3.247095677E0,3.581503787E0,5.129606932E0
1.642692725E1,-1.374872335E0,-3.055343841E0,3.674430077E0,4.972608602E0
1.643695825E1,-9.394488962E-1,-1.977662235E0,3.568168042E0,4.186351075E0
