"Time (s)","Linear Acceleration x (m/s^2)","Linear Acceleration y (m/s^2)","Linear Acceleration z (m/s^2)","Absolute acceleration (m/s^2)"
1.171583310E-3,-2.536858365E-1,-3.955097598E-1,-1.660542587E0,1.725742205E0
1.120358333E-2,-1.511435080E-1,-6.404098624E-1,-1.644978468E0,1.771700684E0
2.123558323E-2,-3.107970536E-1,-2.959679300E-1,-1.315096688E0,1.383355024E0
3.126758325E-2,-2.280864340E-1,2.620344910E-1,-8.011942595E-1,8.732684223E-1
4.129958327E-2,5.489950776E-2,7.020371765E-1,-4.272472769E-1,8.236567178E-1
5.133158329E-2,3.252443540E-1,8.956162673E-1,-4.463916457E-1,1.052225209E0
6.136383326E-2,4.667498964E-1,8.115219042E-1,-2.749840271E-1,9.757251057E-1
7.139583328E-2,3.558861029E-1,6.332686579E-1,2.453784049E-1,7.667428988E-1
8.142783330E-2,2.645128334E-1,2.049033934E-1,7.385109383E-1,8.107717593E-1
9.145983332E-2,4.487784791E-1,-6.975377440E-1,4.892318559E-1,9.629687619E-1
1.014918333E-1,6.502998430E-1,-1.306270316E0,-1.177915746E-1,1.463935408E0
1.115238332E-1,4.764615369E-1,-1.017139535E0,-2.050226766E-1,1.141762991E0
1.215558333E-1,2.820240748E-1,-2.458932522E-1,2.293102562E-2,3.748691801E-1
1.315878333E-1,3.260501003E-1,3.798652419E-1,8.326259673E-2,5.074829356E-1
1.416198333E-1,3.765489936E-1,6.536935669E-1,-5.682324171E-3,7.544115010E-1
1.516518333E-1,3.242117357E-1,6.846156898E-1,-1.955671442E-1,7.823416135E-1
1.616828333E-1,2.909527731E-1,4.536837083E-1,-3.424223042E-1,6.385416648E-1
1.717148332E-1,3.498880291E-1,8.030127436E-2,-6.670749199E-1,7.575347361E-1
1.817468333E-1,3.943467486E-1,-9.449597508E-2,-1.072642475E0,1.146734811E0
1.917788333E-1,3.077652723E-1,2.020739257E-2,-1.038410536E0,1.083247083E0
2.018108333E-1,4.200932086E-1,1.171457496E-1,-9.030977798E-1,1.002889341E0
2.118428333E-1,-1.560434747E-1,2.752249324E-1,-4.574194944E-1,5.561752631E-1
2.218748333E-1,-1.006893751E0,2.937953970E-1,6.130630195E-2,1.050670845E0
2.319068332E-1,-1.075638296E0,9.945090562E-2,3.989508462E-1,1.151542446E0
2.419388333E-1,-1.002817950E0,1.020140326E-1,9.497620690E-1,1.384954400E0
2.519708333E-1,-5.370962861E-1,2.196041706E-1,1.194990200E0,1.328420111E0
2.620028333E-1,-3.195152521E-2,4.041925827E-1,9.874000114E-1,1.067404013E0
2.720348333E-1,1.297912306E-1,5.561102620E-1,4.386236197E-1,7.200660155E-1
2.820668333E-1,6.187231243E-2,5.541464746E-1,5.426216125E-4,5.575901656E-1
2.920988332E-1,-2.966918153E-1,5.681043631E-1,6.946258307E-2,6.446655342E-1
3.021298333E-1,-1.939234918E-1,2.641149303E-1,-1.533508319E-1,3.617727114E-1
3.121618333E-1,3.840056553E-1,-6.327997112E-1,-4.857112473E-1,8.853311435E-1
3.221938333E-1,-1.922836402E-1,-8.892194134E-1,-3.965108031E-1,9.924237907E-1
3.322258333E-1,-1.077431345E-1,-5.700172797E-1,-2.983582717E-1,6.523388234E-1
3.422578333E-1,-1.391467756E-1,-9.816796803E-1,-1.284925640E-2,9.915754754E-1
3.522898332E-1,-3.836419585E-1,-1.816119746E0,3.794164681E-1,1.894578830E0
3.623218333E-1,4.100479844E-1,-3.000763591E0,-9.397376025E-1,3.171092594E0
3.723538333E-1,1.767299296E0,-3.257807191E0,-2.594341757E0,4.524076000E0
3.823858333E-1,1.842602078E0,-2.980436330E0,-3.675602444E0,5.078211936E0
3.924178333E-1,1.165290292E0,-2.844717193E0,-4.023188424E0,5.063236363E0
4.024498332E-1,2.843541902E-1,-2.312266958E0,-3.602574229E0,4.290218743E0
4.124818332E-1,-5.858335960E-1,-1.959746366E0,-2.688818729E0,3.378395030E0
4.225138333E-1,-5.188974852E-1,-1.704433103E0,-1.454717088E0,2.300119260E0
4.325458333E-1,-3.963384564E-1,-3.171465451E0,3.693404292E0,4.884312903E0
4.425778333E-1,1.143556849E0,-3.751501057E0,-1.426418903E0,4.173266507E0
4.526098333E-1,1.100027179E0,-4.278346590E0,-1.650935612E0,4.715919606E0
4.626408333E-1,3.029420795E0,-5.283120725E0,-2.708096999E0,6.665023954E0
4.726728332E-1,4.320729255E0,-5.900399587E0,-1.558468913E0,7.477448892E0
4.827048333E-1,8.306232228E-1,-4.753111264E0,1.327005712E0,5.004292736E0
4.927368333E-1,3.793901264E0,-3.326193594E0,-6.617070006E0,8.321229842E0
5.027688333E-1,5.096057771E0,-3.138218767E0,-1.035424012E1,1.195945276E1
5.128008333E-1,-7.361888920E0,-2.571558666E0,-1.131478329E1,1.374171180E1
5.228328332E-1,-4.400549011E0,-4.774166211E0,-7.919173595E0,1.024064476E1
5.328648333E-1,1.989391019E0,-7.942556026E0,-3.882244214E0,9.061660609E0
5.428968333E-1,2.826908620E0,-8.765923512E0,-3.689595416E0,9.921992829E0
5.529288333E-1,2.576302805E0,-8.607901340E0,-3.940202985E0,9.811141686E0
5.629608333E-1,1.134641088E0,-7.994289851E0,-4.302209954E0,9.149048645E0
5.729928333E-1,2.580358726E-1,-7.978393611E0,-6.291174856E0,1.016367198E1
5.830248332E-1,-1.013691432E0,-7.983946127E0,-7.173826092E0,1.078122196E1
5.930568333E-1,-2.394505561E0,-8.169670653E0,-7.137555814E0,1.110953997E1
6.030888333E-1,-3.532574871E0,-9.196685550E0,-7.396565248E0,1.231938666E1
6.131208333E-1,-4.394145725E0,-1.104646392E1,-6.984724799E0,1.378837417E1
6.231518333E-1,-5.318000536E0,-1.305740792E1,-5.542873925E0,1.514927334E1
6.331838333E-1,-5.839938793E0,-1.467118681E1,-4.077041573E0,1.630861354E1
6.432158332E-1,-4.622222219E0,-1.485239086E1,-2.897673086E0,1.582260919E1
6.532478333E-1,-2.567027074E0,-1.369008718E1,-2.180906773E0,1.409838534E1
6.632798333E-1,2.821603149E-1,-1.246674324E1,-1.501508554E0,1.256000913E1
6.733118333E-1,3.985493764E0,-1.150210820E1,1.417213047E-1,1.217385471E1
6.833438333E-1,7.270189376E0,-1.028830575E1,1.702222125E0,1.271229519E1
6.933758333E-1,1.066289709E1,-9.154991979E0,2.584022591E0,1.428945154E1
7.034078332E-1,1.489377394E1,-7.211633604E0,3.015620781E0,1.682040814E1
7.134398333E-1,1.890202507E1,-3.701780136E0,2.691454069E0,1.944823007E1
7.234718333E-1,2.094559887E1,-2.303519377E-1,8.153070992E-1,2.096272644E1
7.335038333E-1,2.174153824E1,2.808498369E0,-2.445769270E0,2.205819429E1
7.435358333E-1,2.207810865E1,5.057205362E0,-5.239499912E0,2.324802286E1
7.535678333E-1,2.333221478E1,6.256910173E0,-6.451497324E0,2.500325958E1
7.635998332E-1,2.368990300E1,7.581388133E0,-7.692363024E0,2.603577153E1
7.736318333E-1,2.281286041E1,1.009472198E1,-1.072334561E1,2.715363978E1
7.836628333E-1,2.024393299E1,1.134671142E1,-9.721817556E0,2.516104966E1
7.936948333E-1,1.838545748E1,1.134165007E1,-1.059844090E1,2.406210761E1
8.037268333E-1,1.651151959E1,1.172958009E1,-1.095217172E1,2.302527727E1
8.137588333E-1,1.339272001E1,1.152136308E1,-9.820606849E0,2.021264642E1
8.237908332E-1,9.981861362E0,1.013059816E1,-8.324678586E0,1.647928545E1
8.338228333E-1,8.005559775E0,8.492594247E0,-7.641290519E0,1.394999875E1
8.438548333E-1,5.157590361E0,7.715368894E0,-8.310164627E0,1.245738703E1
8.538868333E-1,2.352646514E0,6.964334389E0,-8.129492680E0,1.096018021E1
8.639188333E-1,1.845024580E-1,5.637539177E0,-5.996151837E0,8.232236997E0
8.739508333E-1,-2.066464484E0,3.803386910E0,-3.137049324E0,5.345755878E0
8.839828332E-1,-3.889687720E0,2.641367112E0,-2.083666407E0,5.142777117E0
8.940148333E-1,-3.720626004E0,2.688568760E0,-2.533770450E0,5.243229209E0
9.040468333E-1,-2.817291997E0,3.256522850E0,-2.564443774E0,5.011830718E0
9.140788333E-1,-1.862885485E0,4.311645606E0,-2.106826644E0,5.147751807E0
9.241108333E-1,8.686038852E-3,5.472365860E0,1.087917157E0,5.579464785E0
9.341428333E-1,-1.517959988E0,1.364602724E0,2.091619790E0,2.922535965E0
9.441738332E-1,-3.895278828E0,5.393767002E-1,1.121716987E0,4.089299863E0
9.542058333E-1,-2.636508368E0,2.397000568E0,1.418929204E0,3.835381100E0
9.642378333E-1,-1.046786672E0,1.417627322E0,2.496690917E0,3.055960585E0
9.742698333E-1,-6.160719967E-1,4.051857322E-2,1.620797893E0,1.734408334E0
9.843018333E-1,-1.262513847E0,-9.612913164E-1,8.962167764E-1,1.822423309E0
9.943338333E-1,-1.446774815E0,-1.958615222E0,1.430149426E0,2.823943756E0
1.004365833E0,-6.915396702E-1,-2.039624594E0,9.487996173E-1,2.353405260E0
1.014397833E0,-6.307935315E-1,-5.244388184E-1,-7.868433651E-1,1.136687747E0
1.024429833E0,-1.534048017E0,5.762319928E-1,-2.582167854E0,3.058257258E0
1.034461833E0,-2.129678732E0,-1.729895827E-1,-2.905646349E0,3.606693445E0
1.044493833E0,-1.557281928E0,-2.240923179E0,1.145435706E0,2.959541629E0
1.054525958E0,-2.048965521E0,-5.118828583E0,5.889749761E-1,5.545047998E0
1.064557958E0,-2.508411661E0,-5.410535063E0,5.250985305E-1,5.986797741E0
1.074589958E0,-1.292647473E0,-6.912206461E0,-2.527552521E-1,7.036577355E0
1.084621958E0,-9.799950975E-1,-7.317407981E0,-8.202099895E-1,7.428162248E0
1.094652958E0,3.773699427E-1,-6.003019391E0,-4.855397777E-1,6.034434419E0
1.104684958E0,3.617733135E0,-6.867921404E0,-6.815362537E-1,7.792357096E0
1.114716958E0,3.565265484E0,-8.085471332E0,-1.855703642E0,9.029374322E0
1.124748958E0,2.648282322E0,-6.969330250E0,-2.590908565E0,7.892893676E0
1.134780958E0,3.720497950E0,-4.031141222E0,-2.561715756E0,6.054303607E0
1.144812958E0,3.681971816E0,-1.494688362E0,-2.360846064E0,4.622186051E0
1.154844958E0,5.662098652E-1,1.105143931E0,2.217836033E0,2.541797276E0
1.164876958E0,2.788519603E0,3.085775382E0,1.490992044E0,4.418247227E0
1.174908958E0,5.212234345E0,4.172070814E0,-1.738295352E-1,6.678606026E0
1.184940958E0,5.216381190E0,5.348361619E0,-4.623071820E-1,7.485274388E0
1.194972958E0,4.135796442E0,5.149566227E0,-1.356220740E0,6.742564737E0
1.205004958E0,2.020660320E0,3.565275425E0,-2.219241119E0,4.660395705E0
1.215036958E0,-2.062605321E-2,2.015805377E0,-1.618785866E0,2.585413783E0
1.225068958E0,-8.828132039E-1,6.137822270E-3,-1.040394496E0,1.364484347E0
1.235100958E0,-2.341266078E0,-2.859527605E0,4.307585299E-1,3.720749640E0
1.245132958E0,-3.672726783E0,-5.314249547E0,3.412718060E0,7.305943801E0
1.255164958E0,-1.845743203E0,-4.132789804E0,7.976117290E0,9.170886901E0
1.265195958E0,2.318837328E0,-3.574490637E-1,1.134812177E1,1.158812513E1
1.275227958E0,3.918957712E0,2.134759963E0,1.208583457E1,1.288343226E1
1.285259958E0,2.953742622E0,2.077373049E0,1.140032337E1,1.195857213E1
1.295291958E0,-2.867725986E-1,-1.338551039E0,1.004229935E1,1.013517310E1
1.305323958E0,2.825281048E-1,3.681887031E0,1.057649864E1,1.120260852E1
1.315355958E0,-3.099979731E0,8.495585098E0,3.574349426E0,9.724238495E0
1.325387958E0,-6.833760216E0,7.918508182E0,5.823024552E0,1.197124327E1
1.335419958E0,-7.667947975E0,5.515504863E0,4.471779792E0,1.045059972E1
1.345451958E0,-8.199048234E0,3.270826017E0,-2.908132585E0,9.294080369E0
1.355483958E0,-4.071013386E0,5.953284144E-1,-3.038650157E1,3.066377412E1
1.365515958E0,1.312798147E0,2.877311912E0,-2.344932984E1,2.366164476E1
1.375547958E0,2.246807232E0,6.196524807E0,1.762389097E0,6.822835023E0
1.385579958E0,4.230938827E0,7.034369414E0,4.363863288E0,9.296585352E0
1.395611958E0,6.095290208E0,4.370669739E0,-3.430235441E0,8.247534897E0
1.405643958E0,4.016506811E0,3.412263731E0,-4.732793652E0,7.083445947E0
1.415674958E0,4.315569087E0,3.917661969E0,-3.901728599E0,7.013964493E0
1.425706958E0,5.962127473E0,3.549245283E0,-3.843418995E0,7.931959131E0
1.435738958E0,7.232508749E0,2.262606994E0,-3.337593326E0,8.280585874E0
1.445770958E0,7.671068634E0,2.198178864E-1,-2.258940205E0,7.999776543E0
1.455802958E0,7.390321591E0,-2.430236726E0,-1.487101015E0,7.920503342E0
1.465834958E0,6.696050686E0,-5.239646092E0,-9.772401819E-1,8.558386783E0
1.475866958E0,6.107065331E0,-7.369171042E0,-1.036490310E0,9.626798065E0
1.485898958E0,5.700281555E0,-9.467043845E0,-1.354720345E0,1.113343596E1
1.495930958E0,5.519362856E0,-9.848432579E0,-1.095221499E0,1.134259674E1
1.505962958E0,3.932982551E0,-8.066884203E0,-8.630770969E-1,9.015978847E0
1.515994958E0,1.614005182E0,-4.509000828E0,-1.545596560E0,5.032392068E0
1.526026958E0,6.420317338E-1,-3.294300833E0,-2.837516347E0,4.395011006E0
1.536058958E0,1.206055764E0,-4.980709748E0,-2.967785587E0,5.921975295E0
1.546090958E0,4.795361783E0,-7.384402454E0,7.062179357E-2,8.805105432E0
1.556122958E0,7.638956895E0,-9.742575172E0,4.647493008E0,1.322386572E1
1.566154958E0,6.037039661E0,-1.567861412E1,7.096755112E0,1.823811179E1
1.576185958E0,4.346525416E0,-2.061465582E1,4.121600280E0,2.146727525E1
1.586217958E0,7.658746796E0,-1.794660289E1,5.886859775E0,2.038116964E1
1.596249958E0,1.029824718E1,-1.490419953E1,6.554894223E0,1.926540155E1
1.606281958E0,1.120707290E1,-1.004244086E1,4.744807341E0,1.577853916E1
1.616313958E0,1.084132722E1,-3.977842682E0,2.885572565E0,1.190311461E1
1.626345958E0,9.581114252E0,-2.158324242E-2,9.380303617E-1,9.626947444E0
1.636377958E0,7.627215686E0,2.397437940E0,5.697797365E-1,8.015408707E0
1.646409958E0,4.587858133E0,3.985002013E0,3.703699484E-1,6.088173551E0
1.656441958E0,1.814632068E0,5.163449271E0,1.536075246E-1,5.475188872E0
1.666473958E0,6.754137804E-1,7.770097078E0,1.454307783E-1,7.800752687E0
1.676505958E0,9.790273833E-1,1.325029587E1,1.003915618E0,1.332428917E1
1.686537958E0,-7.781074056E-1,1.579780611E1,1.077606761E0,1.585362309E1
1.696569958E0,-6.169287307E0,9.079707323E0,-1.143372662E0,1.103668845E1
1.706601958E0,-8.906459001E0,6.274151273E0,-2.663723649E0,1.121540948E1
1.716633958E0,-1.010037624E1,6.218032621E0,-4.548360776E0,1.270311440E1
1.726664958E0,-1.105326540E1,6.504742654E0,-6.060426185E0,1.418503149E1
1.736696958E0,-1.159704359E1,7.256334983E0,-7.070735587E0,1.539938697E1
1.746728958E0,-1.320967526E1,7.361312969E0,-8.553944988E0,1.737395821E1
1.756760958E0,-1.381253021E1,7.167473677E0,-9.518932621E0,1.824195022E1
1.766792958E0,-1.174291174E1,6.921432783E0,-7.933548975E0,1.577160129E1
1.776824958E0,-8.671998518E0,6.960070015E0,-5.205394857E0,1.227771430E1
1.786856958E0,-6.786445717E0,6.406015926E0,-3.296104699E0,9.897332555E0
1.796888958E0,-5.551262341E0,5.734301825E0,-1.960867277E0,8.218499344E0
1.806920958E0,-4.586171503E0,5.530973087E0,-7.939664432E-1,7.228763038E0
1.816952958E0,-3.868970158E0,5.817442215E0,2.871099830E-1,6.992424197E0
1.826984958E0,-3.403772112E0,6.269752997E0,1.209186801E0,7.235855164E0
1.837016958E0,-3.241309564E0,6.719165899E0,1.878932730E0,7.693092114E0
1.847048958E0,-3.192849011E0,7.274885859E0,2.449184483E0,8.313648640E0
1.857080958E0,-3.059742993E0,7.853621630E0,2.993401362E0,8.944375417E0
1.867112958E0,-2.988041219E0,8.041449400E0,3.584270397E0,9.297327199E0
1.877144958E0,-3.144704206E0,7.888102076E0,4.070286284E0,9.416928870E0
1.887175958E0,-3.045854979E0,7.762142526E0,4.539174508E0,9.493797678E0
1.897207958E0,-2.815822007E0,7.873474681E0,4.907340056E0,9.695485731E0
1.907239958E0,-2.833767112E0,7.887625528E0,5.030788227E0,9.775157426E0
1.917271958E0,-3.203746174E0,7.281634131E0,4.754361107E0,9.267693062E0
1.927303958E0,-3.602070783E0,6.360100080E0,3.783026028E0,8.230253513E0
1.937335958E0,-3.311541056E0,5.553733374E0,7.266922536E-1,6.506791851E0
1.947367958E0,-1.875484773E0,4.296583178E0,-6.981642147E0,8.409601489E0
1.957399958E0,-2.366123761E0,2.516226465E0,-1.322270403E1,1.366637622E1
1.967431958E0,-4.849447943E0,2.448732054E-1,-8.855696983E0,1.009952857E1
1.977463958E0,-5.262816854E0,-4.379233571E0,-4.639576170E0,8.270465220E0
1.987495958E0,-7.661872133E0,-7.261177062E0,4.362024046E0,1.142174377E1
1.997527958E0,-8.007082974E0,-1.047192820E1,9.685495237E0,1.635797897E1
2.007559958E0,-4.298020424E0,-1.594578159E1,1.067725552E1,1.966582608E1
2.017591958E0,-1.825844543E0,-2.306259967E1,8.171540008E0,2.453551055E1
2.027623958E0,1.127113967E0,-3.253170934E1,1.440478767E1,3.559607290E1
2.037655958E0,6.237590972E0,-3.907605109E1,1.749563873E1,4.326595295E1
2.047686958E0,2.319996012E1,-3.552065629E1,8.428437427E0,4.325498504E1
2.057718792E0,4.493119323E1,-2.504284111E1,-1.070070285E1,5.254009000E1
2.067750792E0,3.704776659E1,-1.621018450E1,-7.195675676E-1,4.044533184E1
2.077782792E0,2.481015467E1,-1.842114888E1,1.542812847E0,3.093966342E1
2.087814792E0,1.528160923E1,-1.895267716E1,1.115013154E0,2.437159836E1
2.097846792E0,1.022003483E1,-1.594708201E1,3.088953052E0,1.919114816E1
2.107878792E0,8.737849275E0,-1.281108577E1,1.662656940E0,1.559610069E1
2.117910792E0,8.425995630E0,-1.103131378E1,2.465179541E-1,1.388337341E1
2.127942792E0,8.158408915E0,-9.452222908E0,6.244211628E-1,1.250176210E1
2.137974792E0,7.595378766E0,-7.934773382E0,1.320821697E0,1.106322635E1
2.148006792E0,6.686298115E0,-6.543176402E0,1.819096856E0,9.530417267E0
2.158038792E0,5.314271182E0,-5.048566686E0,2.051628343E0,7.611746359E0
2.168070792E0,3.962456026E0,-3.476365587E0,1.812970144E0,5.574319348E0
2.178102792E0,2.809278388E0,-1.443765838E0,1.435423030E0,3.469429943E0
2.188134792E0,1.701964847E0,1.017236599E0,1.463115444E0,2.464175611E0
2.198166792E0,9.552015144E-1,2.830290357E0,1.960737469E0,3.573156149E0
2.208197792E0,1.631720053E0,4.696349711E0,2.363691319E0,5.505020217E0
2.218229792E0,2.879080110E0,6.729242991E0,2.563759650E0,7.755299933E0
2.228261792E0,3.674365173E0,8.419907509E0,1.873720375E0,9.375853557E0
2.238293792E0,4.076329089E0,9.698214101E0,1.003132530E0,1.056778550E1
2.248325792E0,4.291285601E0,1.077464323E1,4.764591980E-1,1.160754420E1
2.258357792E0,3.895191412E0,1.160464848E1,1.894772508E-1,1.224239699E1
2.268389792E0,3.206745796E0,1.220131123E1,-1.115362233E-1,1.261616640E1
2.278421792E0,2.550709249E0,1.255634714E1,-3.183300215E-1,1.281675877E1
2.288453792E0,1.840007230E0,1.284167840E1,-3.164939958E-1,1.297669061E1
2.298485792E0,1.172712601E0,1.307991970E1,-4.308497465E-1,1.313945150E1
2.308517792E0,2.152846278E0,1.591501237E1,-6.257900691E-1,1.607214918E1
2.318549792E0,6.334756494E0,2.877122228E1,-6.101565879E-2,2.946041572E1
2.328581792E0,5.014476834E0,2.307506827E1,5.749804694E-2,2.361370491E1
2.338613792E0,4.089974737E0,1.879951168E1,1.742447241E-1,1.924005962E1
2.348644792E0,2.300778495E0,1.630148526E1,2.518962961E-1,1.646497662E1
2.358676792E0,1.972744215E-1,1.287990516E1,-1.065000165E-1,1.288185609E1
2.368708792E0,-1.494178338E0,1.020793343E1,-2.908568788E-1,1.032080770E1
2.378740792E0,-2.604416510E0,8.330878973E0,-2.159342023E-1,8.731160141E0
2.388772792E0,-3.189539779E0,7.258615397E0,7.346324801E-2,7.928811912E0
2.398804792E0,-3.508716477E0,6.666067919E0,4.823017359E-1,7.548520900E0
2.408836792E0,-3.958964069E0,6.228479841E0,9.271625805E-1,7.438211349E0
2.418868792E0,-4.425146201E0,5.738170343E0,1.092344230E0,7.328146676E0
2.428900792E0,-4.461961148E0,5.767887647E0,1.184237902E0,7.387830846E0
2.438932792E0,-3.832570948E0,6.923254775E0,1.513722510E0,8.056761917E0
2.448964792E0,-2.474427059E0,9.354342272E0,2.025405628E0,9.885786593E0
2.458996792E0,-1.416954746E0,1.028203403E1,2.413093421E0,1.065603136E1
2.469028792E0,-8.967382749E-1,9.516729975E0,2.317863182E0,9.835892369E0
2.479060792E0,-5.532432260E-1,9.242329500E0,2.010782765E0,9.474702105E0
2.489092792E0,-4.245265675E-1,9.110291185E0,1.889046074E0,9.313759893E0
2.499123792E0,-2.281547185E-1,8.886422347E0,1.569248840E0,9.026798914E0
2.509155792E0,-6.068117978E-2,8.523677461E0,1.231455191E0,8.612388841E0
2.519187792E0,1.123242087E-1,8.143555233E0,1.107425222E0,8.219276075E0
2.529219792E0,2.535289484E-1,7.594263702E0,1.154875377E0,7.685756647E0
2.539251792E0,2.430232926E-1,6.439292430E0,1.418356616E0,6.598127220E0
2.549283792E0,-3.136584982E-1,4.573722489E0,1.427409421E0,4.801543160E0
2.559315792E0,-8.569763314E-1,1.290871089E0,1.773342247E0,2.354888389E0
2.569347792E0,-9.275651613E-1,-4.380403599E0,1.673925548E0,4.780202879E0
2.579379792E0,-1.898896878E0,-1.160332233E1,5.085126109E-1,1.176866532E1
2.589411792E0,-2.353573443E0,-2.109554721E1,1.174463696E0,2.125889896E1
2.599443792E0,-7.644281369E-1,-3.162733453E1,3.194994646E0,3.179749409E1
2.609475792E0,-2.149499039E0,-4.249972917E1,4.091213762E0,4.275026732E1
2.619507792E0,-4.438476976E0,-4.713698283E1,3.663111037E0,4.748698359E1
2.629539792E0,-1.206348709E0,-4.110024722E1,3.630683548E0,4.127792948E1
2.639571792E0,3.416760240E0,-2.975974788E1,3.736200063E0,3.018734893E1
2.649602792E0,3.357423865E0,-2.054164047E1,1.204133492E0,2.084901018E1
2.659634792E0,1.986433935E0,-1.441995184E1,-3.211283527E-2,1.455616577E1
2.669666792E0,-3.317382352E-1,-1.169572939E1,-4.635064459E-1,1.170961034E1
2.679698792E0,-2.704468802E0,-1.227903826E1,-3.914067686E-1,1.257943288E1
2.689730792E0,-3.516797622E0,-1.552864240E1,-6.153106892E-1,1.593377568E1
2.699762792E0,-3.149037578E0,-1.807347929E1,-1.616641692E0,1.841685700E1
2.709794792E0,-1.635168449E0,-1.775403888E1,-2.316696078E0,1.797906430E1
2.719826792E0,5.990016353E-1,-1.448926707E1,-2.934837989E0,1.479563913E1
2.729858792E0,2.295664520E0,-1.018046789E1,-3.118646967E0,1.089210544E1
2.739890792E0,2.165484596E0,-6.336505980E0,-1.575504191E0,6.879160198E0
2.749922792E0,1.577483035E0,-2.991346650E0,1.075683028E-1,3.383515693E0
2.759954792E0,1.824346486E0,2.593743002E-1,1.377056124E0,2.300390988E0
2.769986792E0,2.683380234E0,2.519951726E0,8.461494076E-1,3.777122582E0
2.780018792E0,3.150833550E0,4.176991830E0,3.335935932E-1,5.242737596E0
2.790050792E0,3.811916243E0,5.519946992E0,-1.172676056E0,6.809969851E0
2.800082792E0,4.806429977E0,6.496734307E0,-2.441604883E0,8.442201146E0
2.810113792E0,5.108337509E0,7.522920070E0,-3.192181551E0,9.637399106E0
2.820145792E0,5.031894520E0,8.750104455E0,-4.306849135E0,1.097420794E1
2.830177792E0,5.129547114E0,9.830752938E0,-5.345595886E0,1.230980716E1
2.840209792E0,5.195052887E0,1.058545540E1,-5.070780258E0,1.283562437E1
2.850241792E0,5.272966450E0,1.108986078E1,-4.180913558E0,1.297186284E1
2.860273792E0,5.168008929E0,1.163760339E1,-3.505311643E0,1.320716997E1
2.870305792E0,4.867371998E0,1.208936161E1,-2.860247397E0,1.334260055E1
2.880337792E0,4.577858809E0,1.218676335E1,-2.149864490E0,1.319454090E1
2.890369792E0,4.090841879E0,1.197023160E1,-1.530533255E0,1.274221189E1
2.900401792E0,3.750198005E0,1.150610652E1,-1.237363218E0,1.216493075E1
2.910433792E0,3.446440707E0,1.099455000E1,-1.126059202E0,1.157696387E1
2.920465792E0,3.037583800E0,1.051244941E1,-1.104064243E0,1.099806645E1
2.930497792E0,2.598250913E0,1.006214597E1,-1.075883660E0,1.044773732E1
2.940529792E0,2.201928683E0,9.756285723E0,-1.090040939E0,1.006090405E1
2.950560792E0,1.724491538E0,9.818263285E0,-1.354869449E0,1.006021055E1
2.960592792E0,1.317493608E0,1.007156467E1,-1.544519210E0,1.027412983E1
2.970624792E0,1.228197561E0,1.023517210E1,-1.111513011E0,1.036834984E1
2.980656792E0,1.255565016E0,1.027346668E1,-5.236561686E-1,1.036314513E1
2.990688792E0,1.168296930E0,1.021274101E1,-9.495819747E-2,1.027978666E1
3.000720792E0,9.926417479E-1,1.014807899E1,2.066230412E-1,1.019860471E1
3.010752792E0,7.909166817E-1,1.007910056E1,4.308672881E-1,1.011926202E1
3.020784792E0,5.618432377E-1,1.002828475E1,6.128969586E-1,1.006269375E1
3.030816792E0,4.024134211E-1,9.960121415E0,8.400916922E-1,1.000358482E1
3.040848792E0,3.627250794E-1,9.929308927E0,1.091895018E0,9.995748095E0
3.050880792E0,4.376757129E-1,9.872319624E0,1.313948879E0,9.968987735E0
3.060912542E0,5.954559568E-1,9.747569278E0,1.520750864E0,9.883438563E0
3.070944542E0,9.010425565E-1,9.564388291E0,1.620202646E0,9.742405129E0
3.080976542E0,1.277730056E0,9.410333455E0,1.630901881E0,9.635704996E0
3.091008542E0,1.551599312E0,9.279446456E0,1.549133248E0,9.534956779E0
3.101039542E0,1.863362617E0,9.143561257E0,1.386290631E0,9.433908756E0
3.111071542E0,2.290343408E0,8.931763996E0,1.196091231E0,9.297995227E0
3.121103542E0,2.920710823E0,8.472465207E0,8.248959482E-1,8.999648422E0
3.131135542E0,3.872558594E0,7.255147414E0,2.287512442E-1,8.227162402E0
3.141167542E0,4.241823711E0,5.499174174E0,7.147636414E-3,6.945072792E0
3.151199542E0,3.886729029E0,3.140798559E0,2.541586022E-1,5.003586186E0
3.161231542E0,4.493662705E0,-1.118845419E0,2.870023759E-1,4.639740288E0
3.171263542E0,5.279766178E0,-8.609266664E0,1.262027943E-1,1.010006587E1
3.181295542E0,4.894332340E0,-1.953709584E1,7.079867184E-1,2.015325899E1
3.191327542E0,4.410812921E0,-3.036576734E1,1.361146435E0,3.071461894E1
3.201359542E0,5.617454576E0,-3.932447589E1,2.008629674E0,3.977442386E1
3.211391542E0,7.614433672E0,-4.563858002E1,6.962277339E0,4.679030767E1
3.221423542E0,7.732155665E0,-4.386060079E1,1.105727425E1,4.588901662E1
3.231455542E0,3.766816669E0,-3.167697739E1,1.023759168E0,3.191657699E1
3.241487542E0,1.144582524E0,-2.216096136E1,-2.042820098E0,2.228433062E1
3.251518542E0,-5.940654159E-1,-1.670536180E1,-2.244457967E0,1.686593070E1
3.261550542E0,-2.424117323E0,-1.515043046E1,-2.759413333E0,1.558929921E1
3.271582542E0,-1.099939617E1,-1.921825418E1,-1.887814621E1,2.909832322E1
3.281614542E0,-2.224653887E1,-2.326455548E1,-4.123795617E1,5.231364126E1
3.291646542E0,-8.484528598E0,-2.169386238E1,-1.055171931E1,2.557243967E1
3.301678542E0,-3.856445422E0,-1.923091925E1,-3.858488731E0,1.998970640E1
3.311710542E0,-3.436572069E0,-1.677336492E1,-1.635086149E0,1.719968910E1
3.321742542E0,-2.906514953E0,-1.407084149E1,1.199207212E0,1.441785377E1
3.331774542E0,-2.121299234E0,-1.117674105E1,3.756073580E0,1.198029798E1
3.341806542E0,-2.265542808E-1,-7.879787335E0,6.657897019E0,1.031842856E1
3.351838542E0,2.456771976E0,-4.311185430E0,8.365597401E0,9.726523954E0
3.361870542E0,4.666453190E0,-1.399283144E0,8.770646893E0,1.003284733E1
3.371902542E0,6.663531981E0,7.301616991E-1,7.946118150E0,1.039598904E1
3.381934542E0,8.142561792E0,2.270938691E0,5.409810593E0,1.003616091E1
3.391966542E0,7.810232366E0,3.230032332E0,2.297741743E0,8.758564700E0
3.401998542E0,6.570769413E0,4.254978485E0,2.845144039E-1,7.833313541E0
3.412029542E0,5.716757255E0,5.657847726E0,-7.234033410E-1,8.075634142E0
3.422061542E0,5.209079188E0,7.172295291E0,-1.109267095E0,8.933465129E0
3.432093542E0,4.475256547E0,8.961849090E0,-1.037931649E0,1.007074786E1
3.442125542E0,3.096450059E0,1.077743820E1,-2.417948949E0,1.147116621E1
3.452157542E0,2.677986177E0,1.167702181E1,-4.706284130E0,1.287142411E1
3.462189542E0,3.688238569E0,1.162285203E1,-4.649790671E0,1.305045387E1
3.472221542E0,4.792896012E0,1.169630943E1,-3.815873054E0,1.320365077E1
3.482253542E0,5.333844736E0,1.190751671E1,-3.042276483E0,1.339754828E1
3.492285542E0,5.682038242E0,1.191868372E1,-2.591707002E0,1.345576179E1
3.502317542E0,5.960293787E0,1.191081103E1,-2.598761083E0,1.357004350E1
3.512349542E0,6.044791900E0,1.191554026E1,-2.684202937E0,1.362807962E1
3.522381542E0,5.910501822E0,1.185412344E1,-2.661312257E0,1.351062017E1
3.532413542E0,5.497811773E0,1.179218973E1,-2.877862135E0,1.332530538E1
3.542445542E0,4.876813497E0,1.202247414E1,-4.068478618E0,1.359690084E1
3.552476542E0,4.230894388E0,1.228697995E1,-5.378468932E0,1.406407735E1
3.562508542E0,3.986028784E0,1.227962065E1,-5.589242930E0,1.406830286E1
3.572540542E0,4.245456001E0,1.204662431E1,-4.637560635E0,1.358867258E1
3.582572542E0,4.538787714E0,1.168136044E1,-3.546639179E0,1.302433972E1
3.592604542E0,4.590926167E0,1.127699390E1,-2.535700032E0,1.243691960E1
3.602636542E0,4.427978885E0,1.093884007E1,-1.896669089E0,1.195251323E1
3.612668542E0,4.136116869E0,1.063722314E1,-1.589010528E0,1.152314772E1
3.622700542E0,3.816278851E0,1.039787321E1,-1.456882896E0,1.117149316E1
3.632732542E0,3.523149160E0,1.018207470E1,-1.381741498E0,1.086261639E1
3.642764542E0,3.269684640E0,9.983655288E0,-1.404718131E0,1.059893596E1
3.652796542E0,3.079639899E0,9.759500522E0,-1.447463032E0,1.033572356E1
3.662828542E0,2.940216842E0,9.554938606E0,-1.435833066E0,1.009967046E1
3.672860542E0,2.769143100E0,9.429531033E0,-1.448216153E0,9.933858215E0
3.682892542E0,2.639670542E0,9.422422573E0,-1.462843548E0,9.893928389E0
3.692923542E0,2.493090202E0,9.389539586E0,-1.469947623E0,9.825461740E0
3.702955542E0,2.369708104E0,9.358776215E0,-1.397981408E0,9.754822436E0
3.712987542E0,2.341254968E0,9.231075949E0,-1.318377414E0,9.614174796E0
3.723019542E0,2.584179881E0,8.954849389E0,-1.414011550E0,9.426915821E0
3.733051542E0,3.105419396E0,8.608169727E0,-1.717083408E0,9.310885624E0
3.743083542E0,3.628929384E0,8.105386364E0,-2.078523927E0,9.120673127E0
3.753115542E0,3.399686370E0,7.326003973E0,-2.612645296E0,8.488469654E0
3.763147542E0,3.316859684E0,6.906308375E0,-1.799299353E0,7.869951188E0
3.773179542E0,3.852525156E0,4.859591108E0,-1.299615015E0,6.336132496E0
3.783211542E0,5.175282866E0,-3.859620168E0,-1.672016578E0,6.669022418E0
3.793243542E0,6.966449327E0,-1.595554761E1,-1.560128353E0,1.747984314E1
3.803275542E0,6.769137958E0,-3.134188515E1,-1.084871927E0,3.208289171E1
3.813307542E0,5.061677313E0,-5.246531188E1,2.474436414E0,5.276696281E1
3.823339542E0,4.320555885E0,-7.053378362E1,9.111917295E0,7.125102716E1
3.833371542E0,8.008938588E-1,-7.046689615E1,6.757741735E0,7.079471701E1
3.843402542E0,-5.484703631E-1,-5.319011403E1,2.462291747E0,5.324990076E1
3.853434542E0,9.311965746E-1,-3.671594411E1,-6.141213655E-2,3.672780215E1
3.863466542E0,2.753015675E-1,-2.482981769E1,-1.224680023E0,2.486152607E1
3.873498542E0,-7.570140137E-1,-1.688827674E1,-1.530035657E0,1.697433270E1
3.883530542E0,-2.185312796E0,-1.186168038E1,-1.968973857E0,1.222096197E1
3.893562542E0,-3.417767131E0,-8.944115070E0,-2.593223185E0,9.919835333E0
3.903594542E0,-4.587189211E0,-6.931403455E0,-3.202044634E0,8.907286262E0
3.913626542E0,-6.191948192E0,-5.069331903E0,-3.492639558E0,8.731373284E0
3.923658542E0,-7.387994399E0,-2.902528029E0,-3.771446494E0,8.788113498E0
3.933690542E0,-8.963647109E0,-8.275336272E-1,-4.947082996E0,1.027158272E1
3.943722542E0,-9.817371000E0,9.838536751E-1,-6.396582613E0,1.175861431E1
3.953754542E0,-9.212670668E0,2.478827088E0,-6.250933149E0,1.140579019E1
3.963786542E0,-6.102467081E0,3.367803258E0,-4.238264219E0,8.157517198E0
3.973818542E0,-2.762806472E0,4.347027107E0,-2.363594840E0,5.667126683E0
3.983850542E0,-9.914239921E-1,5.403613713E0,-1.111829345E0,5.605187525E0
3.993881542E0,-4.638459498E-1,6.549924674E0,-1.870804954E-1,6.568992724E0
4.003913542E0,-4.589366276E-2,7.692715026E0,1.993532894E-1,7.695434519E0
4.013945542E0,4.251489305E-1,8.854632790E0,4.556618945E-1,8.876536556E0
4.023977542E0,7.806831041E-1,1.001217099E1,6.108358882E-1,1.006112094E1
4.034009542E0,1.340119847E0,1.109169096E1,5.889262980E-1,1.118786681E1
4.044041542E0,2.255839427E0,1.183425226E1,2.532078266E-2,1.204736400E1
4.054073542E0,3.139839031E0,1.205177336E1,-9.239080203E-1,1.248829197E1
4.064105708E0,4.162768186E0,1.216934684E1,-1.823971095E0,1.299032378E1
4.074137708E0,5.245758187E0,1.230485957E1,-2.198486427E0,1.355584341E1
4.084169708E0,5.707963042E0,1.236982447E1,-2.084651663E0,1.378184212E1
4.094201708E0,5.330295476E0,1.218592136E1,-1.449116625E0,1.337941210E1
4.104233708E0,4.644098407E0,1.195964347E1,-1.272202098E0,1.289260331E1
4.114265708E0,3.979085800E0,1.170549658E1,-1.253740684E0,1.242673085E1
4.124297708E0,3.414087186E0,1.148540270E1,-1.219878874E0,1.204402636E1
4.134328708E0,3.111748422E0,1.137140538E1,-1.292445159E0,1.186011185E1
4.144360708E0,2.768166030E0,1.134339722E1,-1.385962018E0,1.175824368E1
4.154392708E0,2.224517500E0,1.133600166E1,-1.373048442E0,1.163351511E1
4.164424708E0,1.611012724E0,1.120889255E1,-1.042111824E0,1.137192294E1
4.174456708E0,9.933738193E-1,1.100348220E1,-5.629810693E-1,1.106256570E1
4.184488708E0,3.419289088E-1,1.080642870E1,-9.951904396E-2,1.081229488E1
4.194520708E0,-2.297855801E-1,1.058807495E1,3.932615054E-1,1.059786711E1
4.204552708E0,-6.543053319E-1,1.045804691E1,8.662334239E-1,1.051423896E1
4.214584708E0,-9.855821121E-1,1.035495582E1,1.249126062E0,1.047648787E1
4.224616708E0,-1.140376914E0,1.028517281E1,1.490086311E0,1.045493168E1
4.234648708E0,-1.117635046E0,1.024498139E1,1.677864379E0,1.044145491E1
4.244680708E0,-9.806016731E-1,1.022746313E1,1.766850815E0,1.042517835E1
4.254712708E0,-7.536789081E-1,1.029336593E1,1.692691163E0,1.045880574E1
4.264744708E0,-4.601906361E-1,1.039302587E1,1.588566871E0,1.052379717E1
4.274776708E0,-8.789022937E-3,1.042872897E1,1.445676708E0,1.052845888E1
4.284808708E0,6.395605543E-1,1.034380401E1,1.129494368E0,1.042492574E1
4.294839708E0,1.868603185E0,9.874124075E0,1.386012121E-1,1.005033404E1
4.304871708E0,3.976274166E0,8.533731748E0,-1.788857980E0,9.583076054E0
4.314903708E0,4.616704202E0,6.295499457E0,-2.952175568E0,8.346413103E0
4.324935708E0,3.119586614E0,5.774190946E0,-9.115663022E-1,6.626013496E0
4.334967708E0,2.692632575E0,5.751048836E0,6.676374221E-1,6.385183836E0
4.344999708E0,3.333517232E0,3.899205233E0,5.698018098E-1,5.161473887E0
4.355031708E0,4.124074529E0,-2.481836066E0,1.234796875E0,4.969127116E0
4.365063708E0,5.655228758E0,-1.568317612E1,1.457782198E0,1.673525484E1
4.375095708E0,6.140273423E0,-3.350346512E1,6.638601208E-1,3.406795919E1
4.385127708E0,7.074059145E0,-5.368512527E1,7.067805548E0,5.460850541E1
4.395159708E0,6.416609911E0,-6.773837482E1,6.593063092E0,6.836028663E1
4.405191708E0,8.063729192E-1,-6.841448603E1,-2.204196233E0,6.845473407E1
4.415223708E0,-2.420034943E0,-5.130804967E1,-2.716970733E0,5.143689785E1
4.425255708E0,-2.737597371E0,-2.992429554E1,-1.820497264E0,3.010435373E1
4.435287708E0,-2.857219417E0,-1.764933279E1,-1.107265593E0,1.791336618E1
4.445318708E0,-3.554407790E0,-1.189548197E1,-2.306610800E0,1.262761891E1
4.455350708E0,-4.148610030E0,-9.374603459E0,-4.103510456E0,1.104232554E1
4.465382708E0,-4.987718221E0,-7.648367404E0,-5.303386590E0,1.055939233E1
4.475414708E0,-6.852454349E0,-5.851188251E0,-7.590588727E0,1.178174740E1
4.485446708E0,-8.332776979E0,-4.099151942E0,-9.863165224E0,1.354696450E1
4.495478708E0,-5.789029425E0,-3.790591448E0,-5.011583047E0,8.543852166E0
4.505510708E0,-3.015139555E0,-3.399191111E0,-1.676051157E0,4.843006735E0
4.515542708E0,-1.535311308E0,-2.312282014E0,-1.473066381E-1,2.779483436E0
4.525574708E0,2.301186338E-2,-8.910782433E-1,1.122159036E0,1.433105329E0
4.535606708E0,1.153649801E0,6.169455707E-1,1.785541440E0,2.213523872E0
4.545638708E0,2.200152299E0,2.447436311E0,2.490442582E0,4.127095697E0
4.555670708E0,3.010976338E0,4.337921239E0,2.824015710E0,5.988205400E0
4.565702708E0,3.643893578E0,6.073013486E0,2.683201894E0,7.573574164E0
4.575734708E0,4.185468539E0,7.573868614E0,1.928933879E0,8.865800504E0
4.585766708E0,4.520392374E0,8.913819476E0,1.455920445E0,1.009999155E1
4.595797708E0,4.702600384E0,1.020788198E1,1.242025788E0,1.130742822E1
4.605829708E0,4.776514453E0,1.124852966E1,6.640624344E-2,1.222083956E1
4.615861708E0,4.903152865E0,1.189713439E1,-1.817665458E0,1.299563859E1
4.625893708E0,4.939001559E0,1.189905228E1,-2.436538271E0,1.311174665E1
4.635925708E0,4.949677405E0,1.169475641E1,-1.848730545E0,1.283294349E1
4.645957708E0,5.159242784E0,1.156535519E1,-1.303921489E0,1.273088520E1
4.655989708E0,5.601395198E0,1.162637439E1,-9.717995670E-1,1.294189337E1
4.666021708E0,5.829882166E0,1.160701309E1,-5.977380886E-1,1.300259858E1
4.676053708E0,5.761544003E0,1.157718644E1,-3.215776016E-1,1.293561160E1
4.686085708E0,5.233101888E0,1.141910697E1,-1.300695580E-1,1.256177844E1
4.696117708E0,4.732999181E0,1.143343265E1,-2.277508038E-1,1.237645078E1
4.706149708E0,4.149643526E0,1.158350729E1,-3.036225565E-1,1.230810177E1
4.716181708E0,3.871474813E0,1.173586468E1,-6.604815996E-1,1.237558374E1
4.726213708E0,3.727763700E0,1.191269851E1,-1.220552473E0,1.254186415E1
4.736245708E0,3.594566467E0,1.210176823E1,-1.810493263E0,1.275349318E1
4.746276708E0,3.306487600E0,1.206970093E1,-2.147508062E0,1.269733561E1
4.756308708E0,2.917422057E0,1.184262899E1,-1.978069201E0,1.235604996E1
4.766340708E0,2.483977901E0,1.156414832E1,-1.458754005E0,1.191753481E1
4.776372708E0,2.105746371E0,1.128363751E1,-9.922882106E-1,1.152125336E1
4.786404708E0,1.827194373E0,1.102481986E1,-6.715801996E-1,1.119537013E1
4.796436708E0,1.585444750E0,1.083724703E1,-4.093617406E-1,1.096025252E1
4.806468708E0,1.425637715E0,1.063037371E1,-1.818466892E-1,1.072708518E1
4.816500708E0,1.333907765E0,1.024048722E1,1.480490883E-1,1.032805921E1
4.826532708E0,1.344228101E0,9.923188062E0,4.385738818E-1,1.002342045E1
4.836564708E0,1.383598281E0,9.735278431E0,6.733027893E-1,9.856131441E0
4.846596708E0,1.447235575E0,9.562923564E0,9.192226464E-1,9.715398508E0
4.856628708E0,1.736044467E0,9.341174927E0,9.676001698E-1,9.550269603E0
4.866660708E0,2.522316340E0,9.123420523E0,8.224909884E-1,9.501335337E0
4.876692708E0,4.404770993E0,8.341592242E0,1.648359329E-1,9.434582106E0
4.886723708E0,6.882729478E0,6.319491752E0,-5.528284756E-1,9.360211557E0
4.896755708E0,6.186693884E0,5.127079589E0,-5.041065878E-1,8.050853978E0
4.906787708E0,3.427607410E0,5.926506820E0,4.073591423E-1,6.858419433E0
4.916819708E0,2.442412676E0,5.843394497E0,2.688128757E-1,6.338998288E0
4.926851708E0,1.903536790E0,3.683264635E0,-2.120457490E-1,4.151488177E0
4.936883708E0,2.618407143E0,-3.178496727E0,-3.160712421E-2,4.118239481E0
4.946915708E0,4.162790698E0,-1.481987800E1,-5.292537081E-1,1.540252316E1
4.956947708E0,5.210925153E0,-3.219421741E1,-1.946011476E-1,3.261378918E1
4.966979708E0,5.217521982E0,-5.356506088E1,5.077352529E0,5.405754149E1
4.977011708E0,4.465257808E0,-6.923674021E1,1.359567920E1,7.070012175E1
4.987043708E0,1.093506072E0,-6.261665830E1,-5.010215968E-1,6.262820990E1
4.997075708E0,-9.502105504E-1,-4.013348262E1,-3.310534458E0,4.028100006E1
5.007107708E0,-1.564484382E0,-2.327007759E1,-1.802412996E0,2.339215285E1
5.017139708E0,-2.451667503E0,-1.448430512E1,-8.135506687E-1,1.471283906E1
5.027171708E0,-3.530340650E0,-9.527531537E0,-6.850505034E-1,1.018363670E1
5.037203708E0,-4.940722979E0,-7.899653251E0,-2.507947392E0,9.649096598E0
5.047235708E0,-6.291318113E0,-9.268421531E0,-5.067288886E0,1.229478499E1
5.057266583E0,-6.370180680E0,-1.260620869E1,-6.435146754E0,1.552117306E1
5.067298583E0,-5.021930280E0,-1.460157688E1,-5.534974337E0,1.640310251E1
5.077330583E0,-3.494716196E0,-1.267012110E1,-3.052434851E0,1.349304889E1
5.087362583E0,-2.887025014E0,-9.316685618E0,-1.304742438E0,9.840624836E0
5.097394583E0,-2.305740296E0,-6.865686598E0,-4.274916905E-1,7.255125080E0
5.107426583E0,-1.155420996E0,-5.542718974E0,4.462963361E-1,5.679428820E0
5.117458583E0,-7.087527037E-2,-3.886161264E0,1.296074526E0,4.097204151E0
5.127490583E0,1.048981863E0,-1.823920809E0,2.155535120E0,3.012205458E0
5.137522583E0,2.655260974E0,2.975957948E-1,2.829883391E0,3.891942202E0
5.147554583E0,4.448430691E0,2.319204533E0,3.199630319E0,5.950199951E0
5.157586583E0,6.087192984E0,4.318416097E0,2.944887013E0,8.023402990E0
5.167618583E0,7.079049743E0,6.089021993E0,2.208537206E0,9.595143078E0
5.177650583E0,7.277383790E0,7.912068059E0,1.704434127E0,1.088421938E1
5.187682583E0,6.781786070E0,9.290448577E0,1.194560430E0,1.156425664E1
5.197714583E0,6.107430782E0,1.045966542E1,4.788296592E-1,1.212165786E1
5.207745583E0,5.404014248E0,1.166953386E1,-7.980129357E-1,1.288480559E1
5.217777583E0,4.525117216E0,1.261467429E1,-2.347886295E0,1.360585401E1
5.227809583E0,4.069176190E0,1.301650080E1,-2.745004624E0,1.391123784E1
5.237841583E0,4.290800866E0,1.319174185E1,-2.382341014E0,1.407510475E1
5.247873583E0,4.616131759E0,1.320332635E1,-1.860785165E0,1.411024524E1
5.257905583E0,4.850450156E0,1.303676491E1,-1.408874332E0,1.398102403E1
5.267937583E0,5.130066932E0,1.282571317E1,-1.009901925E0,1.385050204E1
5.277969583E0,5.615412143E0,1.266993165E1,-7.890999518E-1,1.388101942E1
5.288001583E0,6.447780833E0,1.254459775E1,-8.276535682E-1,1.412890020E1
5.298033583E0,7.453449885E0,1.196088775E1,-9.750273762E-1,1.412683367E1
5.308065583E0,8.418993005E0,1.138248118E1,-1.587210317E0,1.424638753E1
5.318097583E0,8.650329906E0,1.111556163E1,-2.424248008E0,1.429198714E1
5.328129583E0,8.067801046E0,1.097792285E1,-3.151460956E0,1.398341554E1
5.338161583E0,6.837263868E0,1.100247648E1,-3.728536702E0,1.347978679E1
5.348193583E0,5.420220391E0,1.107349209E1,-3.631882228E0,1.285268783E1
5.358224583E0,4.431539839E0,1.093728003E1,-2.913264686E0,1.215523553E1
5.368256583E0,4.005912825E0,1.071879063E1,-2.124698659E0,1.163847733E1
5.378288583E0,3.790886732E0,1.045563084E1,-1.448966936E0,1.121563835E1
5.388320583E0,3.638856202E0,1.016998851E1,-9.145116178E-1,1.084003101E1
5.398352583E0,3.329201109E0,9.859460428E0,-3.605078153E-1,1.041261282E1
5.408384583E0,2.892229621E0,9.519443668E0,1.155550146E-1,9.949781550E0
5.418416583E0,2.363010119E0,9.273927854E0,4.760622451E-1,9.582076493E0
5.428448583E0,1.853754765E0,9.031274251E0,8.158905052E-1,9.255592831E0
5.438480583E0,1.584883856E0,8.815314943E0,9.256714674E-1,9.004360168E0
5.448512583E0,1.747431188E0,8.636134036E0,1.046847410E0,8.873117622E0
5.458544583E0,2.406016536E0,8.235972231E0,1.291270453E0,8.676838914E0
5.468576583E0,4.003658431E0,7.076641275E0,1.257230303E0,8.227317947E0
5.478608583E0,6.067814142E0,5.193059571E0,1.358228089E0,8.101297409E0
5.488640583E0,5.079432383E0,5.410177213E0,1.505102545E-1,7.422486386E0
5.498671583E0,3.572156428E0,5.663711314E0,-2.448977637E-1,6.700589699E0
5.508703583E0,3.034070208E0,4.387538372E0,-1.026537180E-1,5.335411210E0
5.518735583E0,3.474188961E0,9.818410635E-1,-5.662397226E-1,3.654398478E0
5.528767583E0,4.249215761E0,-5.205549808E0,-7.515695250E-1,6.761541255E0
5.538799583E0,4.119256715E0,-1.441860230E1,2.127965498E-1,1.499698805E1
5.548831583E0,2.851587671E0,-2.764980584E1,3.195429679E0,2.797952977E1
5.558863583E0,8.942860258E-1,-4.328093122E1,7.920231357E0,4.400873571E1
5.568895583E0,1.142551493E0,-5.564234272E1,1.392289991E1,5.736918048E1
5.578927583E0,-2.021936036E0,-5.483540824E1,5.538717724E0,5.515149696E1
5.588959583E0,-4.922737529E0,-4.337134320E1,-1.808549649E-1,4.365019432E1
5.598991583E0,-4.100588602E0,-2.852675955E1,-6.773338598E-1,2.882793122E1
5.609023583E0,-3.644948708E0,-1.867293233E1,-7.623903823E-1,1.904062215E1
5.619055583E0,-4.270715681E0,-1.367719640E1,-3.935293809E-1,1.433386128E1
5.629087583E0,-6.351447371E0,-1.342757409E1,-3.221902363E0,1.519938435E1
5.639119583E0,-1.280300024E1,-1.703573416E1,-1.916979948E1,2.866381457E1
5.649151583E0,-1.368916332E1,-2.115100688E1,-2.573387208E1,3.601375371E1
5.659183583E0,-6.148875847E0,-2.507758293E1,-1.072754157E1,2.796022153E1
5.669214583E0,-4.801130646E0,-2.821416740E1,-5.674781263E0,2.917692993E1
5.679246583E0,-4.515293309E0,-2.946243100E1,-9.069177657E-1,2.982021485E1
5.689278583E0,-3.119511770E0,-2.542190441E1,2.295737318E0,2.571526759E1
5.699310583E0,6.927528944E-2,-1.690837947E1,5.672893782E0,1.783479238E1
5.709342583E0,3.521820965E0,-8.998218772E0,8.378029751E0,1.278915738E1
5.719374583E0,6.948856809E0,-5.000142385E0,6.848184128E0,1.096292209E1
5.729406583E0,9.851090723E0,-3.709903965E0,3.045578406E0,1.095823543E1
5.739438583E0,1.172456785E1,-2.560175307E0,1.115393808E0,1.205255543E1
5.749470583E0,1.194731169E1,-1.003789757E0,3.259536213E-1,1.199383576E1
5.759502583E0,1.583976573E1,2.816776273E0,2.656578936E0,1.630612825E1
5.769534583E0,1.785752173E1,7.467194350E0,5.433946145E0,2.010417481E1
5.779566583E0,1.628489086E1,1.055248412E1,5.342713208E0,2.012702601E1
5.789598583E0,1.404968158E1,1.362900716E1,4.486349884E0,2.008160163E1
5.799630583E0,1.210722836E1,1.640959326E1,3.272983639E0,2.065362320E1
5.809662583E0,1.000550049E1,1.856909981E1,2.198071275E0,2.120738138E1
5.819694583E0,7.835162555E0,1.991556038E1,-6.943972045E-1,2.141264825E1
5.829725583E0,7.129414151E0,2.203629638E1,-7.669278801E0,2.439763803E1
5.839757583E0,7.225689726E0,2.304265365E1,-1.347953245E1,2.765632431E1
5.849789583E0,6.784000411E0,2.143408228E1,-1.081110413E1,2.494639287E1
5.859821583E0,5.893248442E0,1.837399811E1,-4.983166748E0,1.992902743E1
5.869853583E0,5.031989830E0,1.619685986E1,-3.188545167E-1,1.696351553E1
5.879885583E0,4.815098767E0,1.510381177E1,2.077976482E0,1.598837992E1
5.889917583E0,3.667351145E0,1.274813816E1,1.209208875E0,1.332016055E1
5.899949583E0,2.985201811E0,1.204881467E1,1.302712870E0,1.248128302E1
5.909981583E0,2.815083504E0,1.166965080E1,1.315207200E0,1.207622520E1
5.920013583E0,2.717156383E0,1.131925992E1,1.218786614E0,1.170444465E1
5.930045583E0,2.802142446E0,1.109903155E1,1.250020101E0,1.151533994E1
5.940077583E0,2.774017339E0,1.092006582E1,1.373258357E0,1.135027966E1
5.950109583E0,2.484933921E0,1.083626587E1,1.482921717E0,1.121599801E1
5.960141583E0,2.145690601E0,1.070820015E1,1.614763566E0,1.103979167E1
5.970173583E0,1.846907676E0,1.045984902E1,1.674085908E0,1.075277049E1
5.980204583E0,1.799707928E0,1.013258738E1,1.779148679E0,1.044383290E1
5.990236583E0,1.864545363E0,9.829905092E0,1.847516663E0,1.017432461E1
6.000268583E0,1.951937263E0,9.553170408E0,1.879679857E0,9.930071515E0
6.010300583E0,2.123223114E0,9.299533980E0,1.845141524E0,9.715655196E0
6.020332583E0,2.266281823E0,9.080929391E0,1.815368671E0,9.533880392E0
6.030364583E0,2.423835341E0,8.922009671E0,1.785135058E0,9.416153223E0
6.040396583E0,2.608562770E0,8.799548510E0,1.790063092E0,9.350988161E0
6.050428583E0,2.861933734E0,8.696541036E0,1.796603787E0,9.329966552E0
6.060460458E0,3.189641813E0,8.657272305E0,1.810680374E0,9.402166882E0
6.070492458E0,3.818539385E0,8.711240351E0,1.675709095E0,9.657895861E0
6.080524458E0,4.647167026E0,8.629684557E0,1.088438071E0,9.861658803E0
6.090556458E0,5.695190384E0,7.433610867E0,-2.279521819E0,9.637944997E0
6.100588458E0,6.698712924E0,4.178549529E0,-8.823484672E0,1.184005544E1
6.110620458E0,5.111996112E0,4.432274249E0,-1.628456430E0,6.959125636E0
6.120652458E0,3.175090140E0,3.933792683E0,1.097932414E-1,5.056478698E0
6.130684458E0,2.002744305E0,4.469283616E0,1.399465431E0,5.093523759E0
6.140715458E0,1.837322189E0,5.821693141E0,1.512583473E0,6.289338011E0
6.150747458E0,1.733902924E0,5.010599545E0,1.959102588E0,5.652487072E0
6.160779458E0,2.517442685E0,3.433906031E-1,4.484229684E-1,2.580022856E0
6.170811458E0,2.404599902E0,-9.231952447E0,3.878631366E-1,9.547852349E0
6.180843458E0,2.512117041E0,-2.364832228E1,-7.511590505E-1,2.379323682E1
6.190875458E0,2.804611725E0,-4.009860047E1,4.100595034E0,4.040517895E1
6.200907458E0,1.837171184E0,-4.719558128E1,7.747425084E0,4.786251859E1
6.210939458E0,-2.013671435E-1,-4.573568590E1,-2.309942909E-1,4.573671252E1
6.220971458E0,7.673649010E-1,-4.682139223E1,-1.963977996E0,4.686884710E1
6.231003458E0,1.610685572E0,-4.546646606E1,-1.089671906E0,4.550803477E1
6.241035458E0,7.981337538E-1,-4.213530262E1,1.857385594E0,4.218377207E1
6.251067458E0,-9.537066738E-1,-3.598423758E1,1.842087523E0,3.604397588E1
6.261099458E0,-2.203974624E0,-2.716308595E1,-1.629831841E0,2.730104566E1
6.271131458E0,-3.060547863E0,-1.855829767E1,-4.226327128E0,1.927794612E1
6.281163458E0,-5.381026504E0,-1.122689262E1,-1.056957553E1,1.633139587E1
6.291195458E0,-7.359003319E0,-6.038560522E0,-1.704410036E1,1.952230776E1
6.301227458E0,-4.239700587E0,-4.618958303E0,-9.335303738E0,1.124534271E1
6.311259458E0,-1.196622524E0,-4.004404244E0,-2.902714555E0,5.088507699E0
6.321291458E0,2.803585685E-1,-2.274114899E0,5.833158946E-1,2.364414713E0
6.331322458E0,1.423196064E0,-6.802065969E-1,1.612408893E0,2.255666307E0
6.341354458E0,2.196929314E0,1.075752609E0,2.750371199E0,3.680799345E0
6.351386458E0,2.924117119E0,2.979483234E0,3.547827333E0,5.478581938E0
6.361418458E0,3.899461633E0,4.747008818E0,4.089303476E0,7.379857496E0
6.371450458E0,5.104794096E0,6.132901254E0,3.804759251E0,8.840112755E0
6.381482458E0,5.706741559E0,6.737247829E0,2.496284536E0,9.175447892E0
6.391514458E0,5.992921250E0,7.495940432E0,1.736586211E0,9.752946208E0
6.401546458E0,6.295123481E0,8.545128556E0,1.482085419E0,1.071654697E1
6.411578458E0,6.119006515E0,9.622220178E0,4.574919999E-1,1.141221542E1
6.421610458E0,4.919324509E0,1.050276291E1,-9.841548067E-1,1.163943053E1
6.431642458E0,4.006846918E0,1.160776621E1,-2.343648087E0,1.250150971E1
6.441674458E0,3.741983544E0,1.236779900E1,-3.136797309E0,1.329678120E1
6.451706458E0,3.690247088E0,1.260421128E1,-2.965413079E0,1.346394223E1
6.461738458E0,3.641448272E0,1.255570044E1,-2.348640440E0,1.328238951E1
6.471770458E0,3.859483343E0,1.233920845E1,-1.654029374E0,1.303408954E1
6.481802458E0,4.102750610E0,1.209704134E1,-1.068143555E0,1.281842043E1
6.491833458E0,4.255389251E0,1.199265918E1,-6.278213187E-1,1.274073670E1
6.501865458E0,4.442962959E0,1.186419118E1,-3.840825462E-1,1.267463891E1
6.511897458E0,4.592502868E0,1.171461122E1,-2.289874899E-1,1.258473813E1
6.521929458E0,4.628323789E0,1.160176112E1,-1.436011114E-1,1.249171179E1
6.531961458E0,4.654916048E0,1.151037265E1,-2.155739772E-1,1.241786592E1
6.541993458E0,4.539787003E0,1.140968360E1,-4.561015685E-1,1.228814772E1
6.552025458E0,4.330952819E0,1.136357012E1,-8.623977967E-1,1.219145635E1
6.562057458E0,4.009968454E0,1.130314031E1,-1.395559053E0,1.207428727E1
6.572089458E0,3.694323767E0,1.117560201E1,-1.881817015E0,1.191987180E1
6.582121458E0,3.461415426E0,1.093425117E1,-2.152330261E0,1.166926608E1
6.592153458E0,3.299166886E0,1.060219013E1,-2.134596825E0,1.130696429E1
6.602185458E0,3.108247986E0,1.016889508E1,-1.983698316E0,1.081677825E1
6.612217458E0,2.868051091E0,9.748249310E0,-1.698608546E0,1.030239548E1
6.622249458E0,2.737430726E0,9.473231953E0,-1.371414730E0,9.955723428E0
6.632281458E0,2.834283421E0,9.346240370E0,-1.018528249E0,9.819509731E0
6.642313458E0,3.021848066E0,9.205530049E0,-7.150536633E-1,9.715176321E0
6.652345458E0,3.219959918E0,9.087531483E0,-3.011152704E-1,9.645830225E0
6.662376458E0,3.503159868E0,8.905240442E0,1.057322405E-1,9.570089639E0
6.672408458E0,3.906525947E0,8.639109099E0,3.518924546E-1,9.487833225E0
6.682440458E0,4.726065845E0,8.179891586E0,6.837897706E-1,9.471741824E0
6.692472458E0,6.603669941E0,7.013106599E0,1.081296939E0,9.693364944E0
6.702504458E0,8.425817290E0,4.642988605E0,1.490948775E0,9.735228217E0
6.712536458E0,7.853234544E0,2.392628020E0,1.417323559E0,8.331072423E0
6.722568458E0,5.078029636E0,2.497684944E0,8.165882242E-1,5.717659608E0
6.732600458E0,3.962519761E0,1.954868034E0,-4.385739183E-1,4.440204834E0
6.742632458E0,4.218312934E0,-3.054683690E0,-1.008220777E0,5.304881298E0
6.752664458E0,4.608268716E0,-1.167932912E1,-8.375493228E-1,1.258349546E1
6.762696458E0,4.796659280E0,-2.328902257E1,2.873052434E-1,2.377959329E1
6.772728458E0,4.868362224E0,-3.687865108E1,5.338214360E0,3.757968053E1
6.782760458E0,4.191305522E0,-4.797982856E1,1.051908833E1,4.929789255E1
6.792792458E0,-2.370107469E-1,-4.657614129E1,2.170541414E0,4.662729203E1
6.802824458E0,-3.465969822E0,-3.895646150E1,-1.370600213E0,3.913435044E1
6.812856458E0,-3.778155882E0,-2.993208871E1,-6.443438691E-1,3.017647388E1
6.822888458E0,-4.232259713E0,-2.230998817E1,-2.546579178E-1,2.270930305E1
6.832920458E0,-4.897806463E0,-1.676466192E1,-2.257095408E-1,1.746692138E1
6.842951458E0,-5.775540483E0,-1.430047568E1,-7.512086787E-1,1.544100991E1
6.852983458E0,-6.911841595E0,-1.450387108E1,-2.566113739E0,1.627024186E1
6.863015458E0,-8.490776932E0,-1.608898575E1,-5.230505140E0,1.892899732E1
6.873047458E0,-9.228672159E0,-1.744371545E1,-7.191274184E0,2.100395255E1
6.883079458E0,-9.058979529E0,-1.812886528E1,-6.302710243E0,2.122369014E1
6.893111458E0,-8.404008345E0,-1.774754847E1,-3.782122926E0,1.999768204E1
6.903143458E0,-6.971124176E0,-1.593974610E1,-1.689081677E0,1.747927558E1
6.913175458E0,-5.513489327E0,-1.389079402E1,-1.460739537E-1,1.494570376E1
6.923207458E0,-3.488113228E0,-1.170524982E1,1.146800957E0,1.226763872E1
6.933239458E0,-1.284364892E0,-8.736897933E0,2.034550381E0,9.062139589E0
6.943271458E0,5.512664651E-1,-5.430820223E0,3.069547312E0,6.262573250E0
6.953303458E0,2.142665106E0,-2.276278954E0,4.339995246E0,5.348646405E0
6.963335458E0,4.231607748E0,9.477149588E-1,6.499402392E0,7.813251515E0
6.973367458E0,6.356104678E0,3.067783792E0,5.890737648E0,9.193049228E0
6.983399458E0,6.877651756E0,4.016102183E0,3.016930557E0,8.516633162E0
6.993431458E0,6.430108793E0,5.116649911E0,1.126264878E0,8.294267778E0
7.003463458E0,5.663575659E0,6.515755885E0,1.687540790E-1,8.634792524E0
7.013495458E0,5.328446002E0,9.276846199E0,-2.724197892E0,1.103963162E1
7.023526458E0,7.004603578E0,1.142585232E1,-8.449019042E0,1.584299515E1
7.033558458E0,7.536185648E0,1.082517019E1,-5.101454751E0,1.414225033E1
7.043590458E0,7.309628845E0,1.073093880E1,-2.608480909E0,1.324340946E1
7.053622458E0,6.801002945E0,1.087948030E1,-1.540047260E0,1.292240219E1
7.063654292E0,6.356618063E0,1.104511438E1,-7.835579608E-1,1.276773699E1
7.073686292E0,6.231647862E0,1.129010570E1,-3.738230947E-1,1.290114977E1
7.083718292E0,6.911529354E0,1.305693780E1,-4.826473063E-1,1.478126555E1
7.093750292E0,7.278255610E0,1.354447397E1,-1.389801884E0,1.543882538E1
7.103782292E0,6.745004160E0,1.260037317E1,-2.649588590E0,1.453563913E1
7.113814292E0,6.120594034E0,1.229735408E1,-4.020331475E0,1.431256979E1
7.123846292E0,5.601239077E0,1.219171361E1,-4.949672728E0,1.430073495E1
7.133878292E0,5.238328714E0,1.202491126E1,-5.147453043E0,1.409023957E1
7.143910292E0,5.247353307E0,1.176412661E1,-4.456477044E0,1.363046511E1
7.153942292E0,5.622446344E0,1.139697292E1,-3.439227582E0,1.316553003E1
7.163974292E0,6.251698549E0,1.095778972E1,-2.623798276E0,1.288569780E1
7.174006292E0,6.921787709E0,1.044196005E1,-1.873988324E0,1.266718228E1
7.184038292E0,7.293319792E0,9.719844121E0,-1.231720655E0,1.221413194E1
7.194069292E0,7.322093940E0,8.969470936E0,-9.273724955E-1,1.161570008E1
7.204101292E0,7.198030057E0,8.379576339E0,-8.047160375E-1,1.107594259E1
7.214133292E0,7.022626451E0,7.975566482E0,-8.093715906E-1,1.065748682E1
7.224165292E0,6.702210728E0,7.786075764E0,-7.919305158E-1,1.030387104E1
7.234197292E0,6.324366576E0,7.761748424E0,-8.069758402E-1,1.004457870E1
7.244229292E0,5.978814257E0,7.803229156E0,-7.762266487E-1,9.860990467E0
7.254261292E0,5.627595402E0,7.972165741E0,-6.962021669E-1,9.783146430E0
7.264293292E0,5.202722679E0,8.252901090E0,-5.464456916E-1,9.771248772E0
7.274325292E0,4.780554879E0,8.524430582E0,-3.575169645E-1,9.779950924E0
7.284357292E0,4.413032817E0,8.655427508E0,-2.148465105E-1,9.717892931E0
7.294389292E0,4.051356801E0,8.712741916E0,-3.065570913E-2,9.608657731E0
7.304421292E0,3.597574859E0,8.721734934E0,2.380079164E-1,9.437576643E0
7.314453292E0,3.129542376E0,8.785297092E0,5.583781046E-1,9.342765467E0
7.324485292E0,2.741890397E0,8.766381349E0,9.636176312E-1,9.235581403E0
7.334517292E0,2.875381161E0,8.513536050E0,1.449825892E0,9.102203470E0
7.344549292E0,4.098064944E0,7.894446305E0,1.655116956E0,9.047421229E0
7.354581292E0,5.820524282E0,5.817083781E0,2.038203721E0,8.477690785E0
7.364612292E0,5.529873226E0,3.938038931E0,1.297560888E0,6.911679447E0
7.374644292E0,4.659828587E0,2.681763479E0,3.570619780E-1,5.388260486E0
7.384676292E0,5.109369543E0,-9.832028800E-1,3.845245957E-2,5.203251255E0
7.394708292E0,5.765864511E0,-9.437574463E0,1.366143465E-1,1.106036477E1
7.404740292E0,5.244610963E0,-2.199414965E1,8.237896550E-1,2.262580810E1
7.414772292E0,4.105536516E0,-3.559762436E1,3.137969091E0,3.597072615E1
7.424804292E0,3.585502113E0,-4.926646392E1,5.527687536E0,4.970508648E1
7.434836292E0,1.591636513E0,-5.910223377E1,7.122018592E0,5.955107465E1
7.444868292E0,-1.599525722E0,-5.513475294E1,3.207849165E0,5.525115167E1
7.454900292E0,-1.142916360E0,-4.126667301E1,-1.046339945E0,4.129575507E1
7.464932292E0,-8.206739661E-1,-3.066727785E1,-2.427697281E0,3.077416368E1
7.474964292E0,-2.369537219E0,-2.394750793E1,-2.626749365E0,2.420738844E1
7.484996292E0,-4.379039444E0,-1.970980388E1,-3.140825456E0,2.043323616E1
7.495028292E0,-9.982587587E0,-1.726805808E1,-1.160134480E1,2.307442493E1
7.505060292E0,-1.712314302E1,-1.576576570E1,-2.535021755E1,3.441503922E1
7.515092292E0,-1.061416172E1,-1.416114472E1,-1.391779179E1,2.251451481E1
7.525124292E0,-6.777247462E0,-1.260732434E1,-6.078989925E0,1.555087871E1
7.535156292E0,-5.934512828E0,-1.145469546E1,-2.692183802E0,1.317863211E1
7.545187292E0,-4.655261326E0,-1.003564873E1,6.345516284E-2,1.106298920E1
7.555219292E0,-2.683068285E0,-7.709594184E0,4.997367296E0,9.571331035E0
7.565251292E0,-1.956633016E0,-3.986394235E0,1.056881773E1,1.146384142E1
7.575283292E0,-2.916015582E-1,-1.264294909E0,9.559383659E0,9.647035246E0
7.585315292E0,1.778414999E0,8.753305221E-1,9.500766492E0,9.705334995E0
7.595347292E0,3.199569800E0,2.956024205E0,9.569535595E0,1.051433961E1
7.605379292E0,3.491989347E0,4.443704971E0,7.313455263E0,9.242679880E0
7.615411292E0,3.812115926E0,5.721143836E0,4.589954360E0,8.266280642E0
7.625443292E0,3.721619739E0,7.011067675E0,2.575449404E0,8.344966331E0
7.635475292E0,3.447866258E0,8.226464074E0,1.288576641E0,9.012376082E0
7.645507292E0,3.302585753E0,9.371567584E0,8.271476378E-1,9.970833709E0
7.655539292E0,3.143543242E0,1.043902826E1,1.901708219E-1,1.090373055E1
7.665571292E0,2.625714408E0,1.208063990E1,-4.091668090E0,1.302221119E1
7.675603292E0,3.542104956E0,1.274221610E1,-6.860697169E0,1.489898467E1
7.685635292E0,3.821114498E0,1.213316427E1,-3.981969062E0,1.332931614E1
7.695667292E0,4.022777072E0,1.188947571E1,-2.368693466E0,1.277313888E1
7.705699292E0,4.541155252E0,1.181386185E1,-1.615110891E0,1.275923219E1
7.715730292E0,4.989820295E0,1.173299954E1,-1.306306568E0,1.281670869E1
7.725762292E0,5.298253319E0,1.160006426E1,-1.255976075E0,1.281446273E1
7.735794292E0,5.711099489E0,1.142348770E1,-1.337799672E0,1.284143437E1
7.745826292E0,6.228422538E0,1.132493522E1,-1.349352016E0,1.299492809E1
7.755858292E0,6.782131641E0,1.129883559E1,-1.213323049E0,1.323378812E1
7.765890292E0,7.372825552E0,1.140489122E1,-1.015624010E0,1.361842841E1
7.775922292E0,7.787825836E0,1.170982819E1,-9.425828576E-1,1.409463621E1
7.785954292E0,7.729012787E0,1.220818404E1,-1.462364076E0,1.452294409E1
7.795986292E0,7.170373896E0,1.238384727E1,-2.263922033E0,1.448790109E1
7.806018292E0,6.527719288E0,1.192572845E1,-2.559853125E0,1.383426782E1
7.816050292E0,6.003503541E0,1.120331431E1,-2.407634314E0,1.293649911E1
7.826082292E0,5.467823743E0,1.056862478E1,-2.246180411E0,1.210942825E1
7.836114292E0,4.904747108E0,1.000765694E1,-2.229110050E0,1.136567962E1
7.846146292E0,4.416167217E0,9.544682590E0,-2.296779292E0,1.076469664E1
7.856178292E0,4.050695481E0,9.184794652E0,-2.383242800E0,1.031738499E1
7.866210292E0,3.742442843E0,8.907012148E0,-2.333581082E0,9.939131979E0
7.876242292E0,3.438387921E0,8.730320401E0,-2.137484180E0,9.623400876E0
7.886273292E0,3.257814208E0,8.671738316E0,-1.856420218E0,9.447681984E0
7.896305292E0,3.162744036E0,8.699602053E0,-1.563216413E0,9.387740478E0
7.906337292E0,3.091908234E0,8.774582654E0,-1.271714441E0,9.389912401E0
7.916369292E0,3.018428029E0,8.875141314E0,-1.017835427E0,9.429476660E0
7.926401292E0,3.030662743E0,8.870809112E0,-8.045132122E-1,9.408688138E0
7.936433292E0,3.360708831E0,8.714015440E0,-7.117307637E-1,9.366695768E0
7.946465292E0,4.619843864E0,7.966627259E0,-1.167983665E0,9.283010991E0
7.956497292E0,6.245565405E0,6.327387832E0,-1.287967946E0,8.983417247E0
7.966529292E0,5.479621085E0,5.703394028E0,-8.921078648E-1,7.959322026E0
7.976561292E0,4.148573193E0,5.615720292E0,-9.527061421E-1,7.046603645E0
7.986593292E0,4.166704824E0,3.393355590E0,-1.221186311E0,5.510679383E0
7.996625292E0,4.854038300E0,-3.105110078E0,-1.368085325E0,5.922419596E0
8.006657292E0,5.582511030E0,-1.522024153E1,-1.323599709E0,1.626567238E1
8.016689292E0,6.509988191E0,-3.076527718E1,-4.254691386E-1,3.144937599E1
8.026721292E0,6.958002439E0,-4.909386347E1,2.936431940E0,4.967135856E1
8.036753292E0,4.021281062E0,-6.402975257E1,9.295887072E0,6.482587008E1
8.046785292E0,1.713906908E0,-6.184520006E1,1.102515432E1,6.284361761E1
8.056817292E0,1.519530403E0,-4.740927597E1,1.409974194E0,4.745457246E1
8.066848667E0,1.474157618E0,-3.322335075E1,-1.748639662E0,3.330198067E1
8.076880667E0,1.087481247E-1,-2.339925194E1,-3.019876969E0,2.359356850E1
8.086912667E0,-1.172367615E0,-1.785687269E1,-2.903838975E0,1.812938579E1
8.096944667E0,-2.002587161E0,-1.458723834E1,-2.519586859E0,1.493807871E1
8.106976667E0,-2.997976808E0,-1.283231000E1,-2.138361263E0,1.335022972E1
8.117008667E0,-4.379039736E0,-1.158136837E1,-1.305745236E0,1.245026317E1
8.127040667E0,-5.901377242E0,-1.058902922E1,-9.823848546E-1,1.216219031E1
8.137072667E0,-6.818427647E0,-9.604191458E0,-1.804513316E0,1.191585991E1
8.147104667E0,-6.639104068E0,-7.997858407E0,-2.563474306E0,1.070583217E1
8.157136667E0,-6.063788334E0,-5.753514606E0,-2.778286976E0,8.808594542E0
8.167168667E0,-5.269622428E0,-3.259499375E0,-2.462461317E0,6.667606200E0
8.177200667E0,-4.412879035E0,-6.244685984E-1,-1.555221223E0,4.720399926E0
8.187232667E0,-3.435800821E0,2.292521934E0,-5.233262394E-1,4.163442620E0
8.197264667E0,-2.373925993E0,4.767813211E0,-1.919803159E-1,5.329580085E0
8.207296667E0,-1.376284730E0,6.431047271E0,9.567798972E-3,6.576672427E0
8.217328667E0,-9.529422965E-1,7.513807769E0,1.409502031E-1,7.575306803E0
8.227359667E0,-1.201952334E0,8.496168650E0,-2.901616448E-1,8.585672071E0
8.237391667E0,-1.100563515E0,9.416783518E0,-8.918185738E-1,9.522730294E0
8.247423667E0,-6.016772847E-1,1.034373151E1,-1.548507596E0,1.047629098E1
8.257455667E0,8.809999824E-3,1.139296992E1,-2.702980101E0,1.170922468E1
8.267487667E0,1.163306843E0,1.264141712E1,-4.963935256E0,1.363082399E1
8.277519667E0,2.639774331E0,1.335036862E1,-6.249679506E0,1.497528781E1
8.287551667E0,2.716105345E0,1.290640007E1,-3.729868113E0,1.370636009E1
8.297583667E0,2.476375351E0,1.233783553E1,-1.533566791E0,1.267700467E1
8.307615667E0,2.515656946E0,1.190310440E1,-2.563302398E-1,1.216873573E1
8.317647667E0,2.695876318E0,1.156571070E1,4.108779967E-1,1.188285462E1
8.327679667E0,2.877563634E0,1.130381976E1,7.077177465E-1,1.168578530E1
8.337711667E0,2.965754849E0,1.106852546E1,7.408065552E-1,1.148288953E1
8.347743667E0,3.119646548E0,1.087925226E1,7.143900043E-1,1.134022387E1
8.357775667E0,3.304669701E0,1.087216777E1,7.881362575E-1,1.139061160E1
8.367807667E0,3.340252932E0,1.091227499E1,8.855339134E-1,1.144636211E1
8.377839667E0,3.344293065E0,1.098323447E1,9.341277838E-1,1.151904207E1
8.387871667E0,3.295379937E0,1.109956248E1,9.241863477E-1,1.161524587E1
8.397902667E0,3.029213219E0,1.132755828E1,1.022668662E0,1.177011302E1
8.407934667E0,2.693262028E0,1.146385337E1,1.058268265E0,1.182343124E1
8.417966667E0,2.524107634E0,1.160796502E1,1.109591031E0,1.193093305E1
8.427998667E0,2.495134973E0,1.177082167E1,1.244588038E0,1.209656731E1
8.438030667E0,2.574182020E0,1.192168334E1,1.229344931E0,1.225823135E1
8.448062667E0,2.926120375E0,1.209143854E1,6.356607538E-1,1.245669021E1
8.458094667E0,3.572381254E0,1.201643513E1,1.017378978E-3,1.253621243E1
8.468126667E0,4.242230970E0,1.152472640E1,-1.143628039E-1,1.228124265E1
8.478158667E0,4.558704500E0,1.100121699E1,1.692133047E-2,1.190835204E1
8.488190667E0,4.580269909E0,1.051284000E1,1.856724858E-1,1.146879033E1
8.498222667E0,4.377651315E0,1.002519391E1,3.254075644E-1,1.094414154E1
8.508254667E0,4.228424232E0,9.756755254E0,5.536238432E-1,1.064802066E1
8.518286667E0,4.229404517E0,9.708725055E0,8.995870384E-1,1.062809774E1
8.528318667E0,4.399609364E0,9.385184580E0,1.047120548E0,1.041799950E1
8.538350667E0,4.714738035E0,8.557345728E0,1.040469852E0,9.825451550E0
8.548382667E0,4.675074324E0,7.257317315E0,3.516766193E-1,8.639945081E0
8.558413667E0,4.139177887E0,5.498104134E0,-1.757757810E0,7.102932856E0
8.568445667E0,3.789306522E0,4.730196903E0,-1.106125386E0,6.160934997E0
8.578477667E0,2.780737544E0,5.156577038E0,1.101813065E0,5.961273360E0
8.588509667E0,3.037323014E0,3.520491600E0,1.193906127E0,4.800479563E0
8.598541667E0,3.687625196E0,-2.480901681E0,1.009662627E0,4.557726556E0
8.608573667E0,4.015941385E0,-1.470703025E1,2.556406338E-2,1.524549695E1
8.618605667E0,4.150185270E0,-3.139680688E1,2.020522728E-1,3.167055960E1
8.628637667E0,4.806293153E0,-4.837583475E1,5.040144941E0,4.887458340E1
8.638669667E0,4.989192889E0,-6.084616350E1,5.350541461E0,6.128438588E1
8.648701667E0,2.594124241E0,-6.200960037E1,-1.317165579E0,6.207781362E1
8.658733667E0,-1.664578043E-1,-5.086423197E1,-3.623724777E0,5.099342294E1
8.668765667E0,-2.094204990E0,-3.382033276E1,-3.090269845E0,3.402573100E1
8.678797667E0,-2.872754299E0,-2.124112417E1,-3.282640316E0,2.168441377E1
8.688829667E0,-4.778305455E0,-1.450163510E1,-6.333237387E0,1.652995824E1
8.698861667E0,-7.618247811E0,-1.092479271E1,-1.206713985E1,1.797233039E1
8.708893667E0,-7.573500239E0,-1.027023201E1,-1.208686368E1,1.757634333E1
8.718925667E0,-4.505915253E0,-1.193642534E1,-5.894448876E0,1.405439610E1
8.728957667E0,-3.184956146E0,-1.340909923E1,-2.660013006E0,1.403650800E1
8.738988667E0,-2.614705271E0,-1.303110480E1,-9.338225591E-1,1.332360314E1
8.749020667E0,-1.670342813E0,-1.129490509E1,8.558189481E-1,1.144977520E1
8.759052667E0,-9.478885480E-1,-8.966589428E0,3.401010765E0,9.636653615E0
8.769084667E0,-8.804094136E-2,-6.057448198E0,5.439554794E0,8.141817134E0
8.779116667E0,1.452428780E0,-3.234004930E0,5.993551580E0,6.963547787E0
8.789148667E0,3.221442480E0,-4.196324480E-1,6.744075623E0,7.485742384E0
8.799180667E0,4.724982356E0,2.399052941E0,7.307548406E0,9.026692472E0
8.809212667E0,5.759019760E0,4.869405659E0,6.931430937E0,1.024315161E1
8.819244667E0,6.058083791E0,6.746636703E0,5.731960015E0,1.072720148E1
8.829276667E0,5.756487916E0,8.003803271E0,3.893164474E0,1.059975233E1
8.839308667E0,5.458887443E0,9.164863248E0,2.626831811E0,1.098610103E1
8.849340667E0,5.541947726E0,1.049616725E1,2.181879165E0,1.206827694E1
8.859372667E0,5.019407791E0,1.148820001E1,1.439029593E0,1.261919174E1
8.869404667E0,4.019269620E0,1.181009157E1,4.697786079E-1,1.248412925E1
8.879436667E0,2.361693179E0,1.223771014E1,-1.027241039E0,1.250577340E1
8.889468667E0,-9.969283417E-3,1.323493874E1,-4.947785246E0,1.412955349E1
8.899499667E0,4.452282690E-1,1.304108015E1,-5.332239091E0,1.409612619E1
8.909531667E0,1.616416866E0,1.223440998E1,-3.228001009E0,1.275592339E1
8.919563667E0,2.628574281E0,1.184792539E1,-2.195825944E0,1.233306087E1
8.929595667E0,3.379815778E0,1.170277528E1,-1.551282685E0,1.227943736E1
8.939627667E0,3.907584293E0,1.171122334E1,-1.393876955E0,1.242436558E1
8.949659667E0,4.236306571E0,1.176287647E1,-1.351244760E0,1.257527012E1
8.959691667E0,4.614019453E0,1.183934870E1,-1.270395893E0,1.277001405E1
8.969723667E0,4.869738951E0,1.187455127E1,-1.190335378E0,1.288938415E1
8.979755667E0,4.936507722E0,1.181141772E1,-1.072633705E0,1.284637070E1
8.989787667E0,4.774386651E0,1.178582446E1,-1.070392394E0,1.276111930E1
8.999819667E0,4.306433398E0,1.172583553E1,-1.331528533E0,1.256238655E1
9.009851667E0,3.635828221E0,1.172497950E1,-2.083144836E0,1.245126032E1
9.019883667E0,3.152691211E0,1.182767298E1,-2.868535826E0,1.257226343E1
9.029915667E0,3.052192776E0,1.181239654E1,-2.832039260E0,1.252473709E1
9.039947667E0,3.105375541E0,1.168085641E1,-2.066856247E0,1.226204137E1
9.049979667E0,3.153469475E0,1.147986656E1,-1.281146584E0,1.197384827E1
9.060010667E0,3.063713545E0,1.125603748E1,-7.049987912E-1,1.168681923E1
9.070042917E0,2.820982760E0,1.093156964E1,-3.948618517E-1,1.129659570E1
9.080074917E0,2.445919105E0,1.039550041E1,-2.130690300E-1,1.068149557E1
9.090106917E0,2.059263053E0,9.950646586E0,-7.727974394E-2,1.016178646E1
9.100138917E0,1.714629917E0,9.701977369E0,1.538221174E-1,9.853526366E0
9.110170917E0,1.465058766E0,9.567006674E0,4.406818396E-1,9.688561007E0
9.120202917E0,1.390098046E0,9.499276037E0,8.057369614E-1,9.634201049E0
9.130234917E0,1.683098806E0,9.405684333E0,1.077617286E0,9.615663180E0
9.140266917E0,2.385718219E0,9.257679611E0,1.169779345E0,9.631441580E0
9.150298917E0,3.158412419E0,8.742360402E0,1.259547554E0,9.380346180E0
9.160330917E0,3.639277494E0,7.687684082E0,9.361181760E-1,8.556935459E0
9.170362917E0,5.223439364E0,4.720006376E0,-6.862684053E-1,7.073453422E0
9.180394917E0,3.673389273E0,4.492390058E0,5.592844230E-1,5.829936213E0
9.190426917E0,1.419483228E0,5.804505250E0,1.600081792E0,6.186071094E0
9.200458917E0,1.493368499E0,3.823306620E0,2.142062550E0,4.629930340E0
9.210490917E0,2.461216737E0,-1.877207655E0,1.089363173E0,3.281494862E0
9.220522917E0,3.174776144E0,-1.449913132E1,8.459652203E-1,1.486673030E1
9.230553917E0,4.697028573E0,-3.139659170E1,1.287539345E0,3.177209161E1
9.240585917E0,5.626884381E0,-4.953078146E1,2.283772745E0,4.990166087E1
9.250617917E0,7.745460420E0,-6.710063539E1,1.109179504E1,6.845082427E1
9.260649917E0,6.015257029E0,-7.116526887E1,4.737365590E0,7.157598371E1
9.270681917E0,1.364625674E0,-5.532634515E1,-4.259397225E0,5.550683864E1
9.280713917E0,2.658353274E-1,-3.455234334E1,-3.549177455E0,3.473516604E1
9.290745917E0,-7.888506411E-1,-2.056874816E1,-2.218424263E0,2.070306964E1
9.300777917E0,-1.807103047E0,-1.250092840E1,-1.346965913E0,1.270248596E1
9.310809917E0,-3.350625892E0,-9.122565075E0,-4.078092902E0,1.053938941E1
9.320841917E0,-6.885790495E0,-8.223374990E0,-1.350484738E1,1.724583746E1
9.330873917E0,-1.003495174E1,-9.876236089E0,-2.283953775E1,2.683066865E1
9.340905917E0,-6.075590354E0,-1.228699282E1,-1.011180521E1,1.703324969E1
9.350937917E0,-3.347718657E0,-1.211568577E1,-3.112091069E0,1.294921514E1
9.360969917E0,-2.561754347E0,-1.037318510E1,-2.482715341E-1,1.068771225E1
9.371001917E0,-2.074188363E0,-8.093902432E0,1.050651682E0,8.421245924E0
9.381033917E0,-1.475339633E0,-5.978001494E0,1.531275852E0,6.344914076E0
9.391065917E0,-1.188239444E0,-3.418549488E0,3.010221462E0,4.707422525E0
9.401096917E0,-3.224251921E-1,-2.650963855E-1,4.522947607E0,4.542167891E0
9.411128917E0,8.798785595E-1,2.784166351E0,5.776269046E0,6.472329769E0
9.421160917E0,2.435134500E0,4.991388518E0,5.948163153E0,8.137842728E0
9.431192917E0,3.987037721E0,6.676457251E0,5.059490454E0,9.277391599E0
9.441224917E0,4.438274954E0,7.930988479E0,3.744775590E0,9.829659559E0
9.451256917E0,4.451534100E0,9.028062376E0,2.712177771E0,1.042487287E1
9.461288917E0,4.711388749E0,1.012960647E1,2.187825199E0,1.138387852E1
9.471320917E0,5.046444147E0,1.115831881E1,1.820510128E0,1.238099085E1
9.481352917E0,5.371241773E0,1.188145099E1,1.106280264E0,1.308598379E1
9.491384917E0,4.896956570E0,1.250284512E1,7.203703903E-2,1.342782593E1
9.501416917E0,3.894459048E0,1.337613964E1,-1.777001727E0,1.404441733E1
9.511448917E0,3.256258264E0,1.355413824E1,-2.896386698E0,1.423751865E1
9.521480917E0,3.022448575E0,1.300529519E1,-2.705472184E0,1.362323303E1
9.531512917E0,3.549538813E0,1.263515475E1,-2.505247732E0,1.336123600E1
9.541544917E0,4.362626309E0,1.243026597E1,-2.400735038E0,1.339057688E1
9.551576917E0,5.124773448E0,1.220999434E1,-2.344850421E0,1.344788415E1
9.561607917E0,6.219027232E0,1.199331290E1,-2.457408738E0,1.373152256E1
9.571639917E0,7.302339706E0,1.176059840E1,-2.590114805E0,1.408348446E1
9.581671917E0,8.361213158E0,1.172791012E1,-2.987039006E0,1.470973023E1
9.591703917E0,8.772608049E0,1.184628116E1,-3.369020648E0,1.512095663E1
9.601735917E0,8.462676383E0,1.187918929E1,-3.779275331E0,1.506701535E1
9.611767917E0,7.566074860E0,1.184973101E1,-3.948719455E0,1.460321880E1
9.621799917E0,6.407759566E0,1.168423610E1,-3.797994608E0,1.385660561E1
9.631831917E0,5.214497218E0,1.130432613E1,-3.368002063E0,1.289659677E1
9.641863917E0,4.381026912E0,1.086502014E1,-2.781947917E0,1.204081781E1
9.651895917E0,3.855587635E0,1.048150360E1,-2.151121641E0,1.137342508E1
9.661927917E0,3.507238301E0,1.015818298E1,-1.547250591E0,1.085741159E1
9.671959917E0,3.182097443E0,9.895529562E0,-1.030049091E0,1.044548949E1
9.681991917E0,2.884782899E0,9.678803684E0,-6.591373978E-1,1.012105109E1
9.692023917E0,2.568144185E0,9.492959874E0,-3.284878776E-1,9.839692882E0
9.702055917E0,2.237568047E0,9.353968635E0,-3.602067567E-2,9.617938317E0
9.712086917E0,1.887791261E0,9.202062065E0,1.980814469E-1,9.395793652E0
9.722118917E0,1.624081689E0,9.082367222E0,3.413007716E-1,9.232741841E0
9.732150917E0,1.431660786E0,8.995745400E0,5.351628312E-1,9.124663674E0
9.742182917E0,1.464831601E0,8.803593614E0,7.654432136E-1,8.957393340E0
9.752214917E0,2.017119685E0,8.604084277E0,1.050969771E0,8.899639067E0
9.762246917E0,3.105009798E0,8.336180643E0,1.338957421E0,8.995876863E0
9.772278917E0,4.823371115E0,7.346279778E0,1.578803775E0,8.928905692E0
9.782310917E0,6.961940539E0,3.744427096E0,3.161428120E0,8.513752293E0
9.792342917E0,7.015752465E0,2.065609036E0,2.120467029E0,7.614716262E0
9.802374917E0,4.903525332E0,2.262136293E0,-7.660068852E-1,5.454226603E0
9.812406917E0,5.262163135E0,-4.052920931E0,-1.166952217E0,6.743760554E0
9.822438917E0,5.751223083E0,-1.442983129E1,-1.612825214E0,1.561722777E1
9.832470917E0,6.386340630E0,-2.795699516E1,-7.301500046E-1,2.868644356E1
9.842502917E0,6.085599618E0,-4.458608120E1,1.693793364E0,4.503134570E1
9.852534917E0,6.699085976E0,-5.898570578E1,9.457023472E0,6.011344718E1
9.862566917E0,4.481603992E0,-6.133794240E1,7.574842175E0,6.196616970E1
9.872598917E0,-2.977753043E-2,-4.982288029E1,-3.438256944E0,4.994138462E1
9.882629917E0,-8.145472535E-1,-3.499032085E1,-3.559104273E0,3.518029652E1
9.892661917E0,-1.349954571E0,-2.355785416E1,-2.790835100E0,2.376096864E1
9.902693917E0,-2.340876507E0,-1.689436018E1,-2.067680120E0,1.718064056E1
9.912725917E0,-3.658713054E0,-1.383506187E1,-1.689167631E0,1.441001060E1
9.922757917E0,-5.661496389E0,-1.334172176E1,-2.435443526E0,1.469644400E1
9.932789917E0,-7.786195632E0,-1.403995065E1,-3.767113123E0,1.649048810E1
9.942821917E0,-8.901398821E0,-1.398053826E1,-5.114411012E0,1.734495751E1
9.952853917E0,-8.777182326E0,-1.243928004E1,-5.079500796E0,1.604917275E1
9.962885917E0,-7.287267923E0,-1.022158083E1,-2.943551509E0,1.289377695E1
9.972917917E0,-5.411088209E0,-7.663004154E0,-5.087422603E-1,9.394696746E0
9.982949917E0,-4.193457005E0,-4.985620240E0,8.857110840E-1,6.574646375E0
9.992981917E0,-2.817808891E0,-2.314433205E0,1.925911453E0,4.123806849E0
1.000301392E1,-1.340677964E0,4.413677180E-1,2.738403702E0,3.080759274E0
1.001304592E1,-7.387668271E-2,2.899585710E0,3.111957167E0,4.254095963E0
1.002307792E1,6.879756461E-1,4.805403791E0,2.595748013E0,5.504827321E0
1.003310992E1,1.043053664E0,6.052884446E0,1.728104240E0,6.380573276E0
1.004314192E1,1.205398829E0,7.114141223E0,1.105476345E0,7.299730792E0
1.005317292E1,1.402266540E0,8.179001055E0,6.003634518E-1,8.320026801E0
1.006320479E1,1.952661003E0,9.301515017E0,3.247718990E-1,9.509813005E0
1.007323679E1,2.923922991E0,1.080549548E1,-6.897090532E-2,1.119432067E1
1.008326879E1,4.420179284E0,1.206718429E1,-2.267974153E0,1.304985166E1
1.009330079E1,5.565293904E0,1.207344782E1,-2.897997022E0,1.360658022E1
1.010333279E1,5.732880367E0,1.193523368E1,-1.968299088E0,1.338618398E1
1.011336479E1,5.429499337E0,1.194444187E1,-1.141089982E0,1.317008888E1
1.012339679E1,5.166742423E0,1.198793814E1,-6.868174589E-1,1.307201616E1
1.013342879E1,4.854970638E0,1.197837794E1,-6.997708688E-1,1.294379996E1
1.014346079E1,4.943310957E0,1.213138438E1,-7.958487350E-1,1.312403083E1
1.015349279E1,5.352528344E0,1.241336635E1,-9.761300880E-1,1.355337795E1
1.016352479E1,5.971167853E0,1.260359849E1,-1.292298394E0,1.400626916E1
1.017355679E1,6.933220185E0,1.243012447E1,-1.765632255E0,1.434207076E1
1.018358879E1,7.886238568E0,1.186402629E1,-2.088338479E0,1.439823031E1
1.019362079E1,8.528557547E0,1.141773170E1,-2.278204442E0,1.443229388E1
1.020365179E1,8.817995891E0,1.126629584E1,-2.524489750E0,1.452788773E1
1.021368379E1,8.797932340E0,1.119844007E1,-2.810854797E0,1.451583887E1
1.022371579E1,8.351371710E0,1.118635738E1,-2.874937357E0,1.425290376E1
1.023374779E1,7.364845272E0,1.113167656E1,-2.752407784E0,1.362831308E1
1.024377979E1,6.118837531E0,1.089219800E1,-2.567891293E0,1.275438025E1
1.025381179E1,4.961001123E0,1.048844308E1,-2.286070701E0,1.182561159E1
1.026384379E1,4.164656252E0,1.012884399E1,-1.988889912E0,1.113074685E1
1.027387579E1,3.618295345E0,9.895972781E0,-1.702211015E0,1.067332473E1
1.028390779E1,3.216303947E0,9.770750565E0,-1.438136723E0,1.038654971E1
1.029393979E1,2.849939926E0,9.681719690E0,-1.178512820E0,1.016104061E1
1.030397179E1,2.513885532E0,9.614904726E0,-8.857637820E-1,9.977504239E0
1.031400379E1,2.227166874E0,9.627941678E0,-5.939695946E-1,9.900016824E0
1.032403579E1,1.919651131E0,9.696502036E0,-3.405091683E-1,9.890559069E0
1.033406779E1,1.633175571E0,9.660436994E0,2.786256731E-2,9.797554883E0
1.034409979E1,1.500174512E0,9.511850474E0,4.116918560E-1,9.638221474E0
1.035413179E1,1.906622804E0,9.147649630E0,7.412287972E-1,9.373586528E0
1.036416279E1,2.846124617E0,8.719228233E0,1.086996293E0,9.236174925E0
1.037419479E1,4.146235184E0,7.956309847E0,1.522017370E0,9.100036783E0
1.038422679E1,5.072632656E0,6.666015878E0,1.352387305E0,8.485064595E0
1.039425879E1,5.834410250E0,4.358494667E0,2.028964536E0,7.559994432E0
1.040429079E1,5.736523767E0,2.299792362E0,1.176942185E0,6.291418182E0
1.041432279E1,5.032500876E0,-3.789288688E0,2.467414639E-1,6.304415531E0
1.042435479E1,5.050343655E0,-1.356193843E1,-3.350750584E-2,1.447180941E1
1.043438679E1,5.286828445E0,-2.484348848E1,1.102869657E0,2.542372507E1
1.044441879E1,5.701474972E0,-3.905413339E1,2.852364181E0,3.957105170E1
1.045445079E1,6.731872483E0,-5.411183636E1,3.661126492E0,5.465174094E1
1.046448279E1,6.056869909E0,-6.171277232E1,5.779266329E0,6.227802068E1
1.047451479E1,3.132250514E0,-5.233013361E1,3.472761948E0,5.253869006E1
1.048454679E1,1.159723012E0,-3.679623106E1,-5.976181841E-1,3.681935259E1
1.049457879E1,1.980045560E-1,-2.492535418E1,-1.909382544E0,2.499916455E1
1.050461079E1,-6.814703263E-1,-1.739000761E1,-2.282226157E0,1.755235946E1
1.051464279E1,-1.631806153E0,-1.330369381E1,-2.263127396E0,1.359311612E1
1.052467479E1,-3.301160202E0,-1.159652319E1,-2.207230353E0,1.225760476E1
1.053470579E1,-5.682270377E0,-1.124515932E1,-2.003754411E0,1.275761876E1
1.054473779E1,-7.537140498E0,-1.146364755E1,-1.964166861E0,1.385935256E1
1.055476979E1,-8.654641058E0,-1.129986236E1,-1.887755447E0,1.435804032E1
1.056480179E1,-8.657927193E0,-1.013441756E1,-1.427384278E0,1.340535521E1
1.057483379E1,-8.350622097E0,-8.340970098E0,-5.354587734E-1,1.181487993E1
1.058486579E1,-7.600049522E0,-6.022238020E0,1.023703619E0,9.750696006E0
1.059489779E1,-6.350959713E0,-3.284705552E0,2.095935620E0,7.450968123E0
1.060492979E1,-4.801430900E0,-3.008468467E-1,2.547167006E0,5.443556491E0
1.061496179E1,-3.393859035E0,2.378956645E0,2.821471587E0,5.013822473E0
1.062499379E1,-2.327214488E0,4.454449230E0,2.184265999E0,5.479878025E0
1.063502579E1,-1.317177858E0,5.989454436E0,1.395269616E0,6.289300378E0
1.064505779E1,-6.011729623E-1,7.280254188E0,8.217238337E-1,7.351104681E0
1.065508979E1,-1.850333486E-1,8.304933123E0,2.686012065E-1,8.311335520E0
1.066512179E1,2.150934823E-1,9.118629899E0,-2.078142104E-1,9.123533481E0
1.067515379E1,7.377149861E-1,9.952669723E0,-8.059544778E-1,1.001246327E1
1.068518479E1,2.181945239E0,1.205105299E1,-4.273859144E0,1.297130044E1
1.069521679E1,5.694289913E0,1.414535022E1,-1.026388310E1,1.838105456E1
1.070524879E1,5.931508529E0,1.336875344E1,-6.251776902E0,1.590569321E1
1.071528079E1,5.170619711E0,1.269539744E1,-3.093348404E0,1.405265913E1
1.072531279E1,4.637764703E0,1.207386298E1,-1.057678939E0,1.297712269E1
1.073534479E1,4.223704067E0,1.165294882E1,-2.898506460E-1,1.239818154E1
1.074537679E1,3.901445594E0,1.140927078E1,-3.056422944E-1,1.206176416E1
1.075540879E1,3.444369623E0,1.136039157E1,-2.405415881E-1,1.187350155E1
1.076544079E1,3.134257863E0,1.148419817E1,-3.893368542E-1,1.191058199E1
1.077547279E1,2.959429623E0,1.148424495E1,-7.040522732E-1,1.188031125E1
1.078550479E1,2.621601769E0,1.149927931E1,-1.251892964E0,1.186058416E1
1.079553679E1,2.566957200E0,1.174667969E1,-2.232638990E0,1.222940840E1
1.080556879E1,3.366532658E0,1.249308729E1,-4.996776143E0,1.387005926E1
1.081560079E1,3.554051694E0,1.272590938E1,-5.106656435E0,1.416538009E1
1.082563279E1,3.190795761E0,1.220607905E1,-2.923188581E0,1.295046620E1
1.083566379E1,2.986505156E0,1.150290108E1,-1.637095252E0,1.199650062E1
1.084569579E1,2.690267961E0,1.090651900E1,-9.813891468E-1,1.127620605E1
1.085572779E1,2.353593470E0,1.050555788E1,-6.689812584E-1,1.078673651E1
1.086575979E1,2.029955931E0,1.020996125E1,-5.427783910E-1,1.042394542E1
1.087579179E1,1.697422584E0,9.888591256E0,-4.469512973E-1,1.004316912E1
1.088582379E1,1.465923569E0,9.506640020E0,-3.477999153E-1,9.625284472E0
1.089585579E1,1.396718410E0,9.289300768E0,-1.743002361E-1,9.395334568E0
1.090588779E1,1.315702752E0,9.213619671E0,7.651900291E-2,9.307401159E0
1.091591979E1,1.306435499E0,9.193758434E0,2.729907844E-1,9.290128730E0
1.092595179E1,1.606568840E0,9.171076500E0,4.877016395E-1,9.323495079E0
1.093598379E1,2.134392757E0,9.150514181E0,5.760519717E-1,9.413786597E0
1.094601579E1,2.823331294E0,9.077767802E0,6.212134534E-1,9.526960376E0
1.095604779E1,3.839505161E0,8.660684155E0,7.532693106E-1,9.503508014E0
1.096607979E1,4.601856952E0,7.401485680E0,3.251858819E-1,8.721514979E0
1.097611179E1,5.095450246E0,5.550597512E0,-4.767655921E-1,7.549837838E0
1.098614379E1,4.891511643E0,4.820052236E0,4.723006582E-1,6.883520729E0
1.099617479E1,5.003390513E0,2.738465683E0,8.489736128E-1,5.766616609E0
1.100620679E1,5.511328197E0,-5.336428036E0,6.710633057E-1,7.700813505E0
1.101623879E1,6.016248717E0,-2.050192852E1,9.134169459E-1,2.138594520E1
1.102627079E1,6.025074504E0,-3.612697045E1,2.379391093E0,3.670314726E1
1.103630279E1,7.104911978E0,-5.204758212E1,6.732265416E0,5.295992803E1
1.104633479E1,6.514978205E0,-6.098700188E1,6.672537278E0,6.169588392E1
1.105636679E1,1.408546742E0,-5.729749300E1,-6.475358641E-1,5.731846134E1
1.106639879E1,-1.821622122E0,-4.388025211E1,-1.247957203E0,4.393577391E1
1.107643079E1,-2.871962586E0,-3.004987970E1,-1.235689745E0,3.021208977E1
1.108646279E1,-3.393809334E0,-2.032466901E1,-8.063655370E-1,2.062184127E1
1.109649479E1,-4.202364946E0,-1.512457875E1,-1.176653332E0,1.574157763E1
1.110652679E1,-5.203786873E0,-1.290509029E1,-2.817887244E0,1.419722655E1
1.111655879E1,-6.949467258E0,-1.156650124E1,-3.836547639E0,1.402847618E1
1.112659079E1,-7.947821444E0,-1.033775331E1,-4.215061882E0,1.370415105E1
1.113662279E1,-8.446561457E0,-9.079652359E0,-5.006287808E0,1.337338420E1
1.114665479E1,-8.785235696E0,-7.392038333E0,-5.188747834E0,1.259943257E1
1.115668579E1,-8.229650806E0,-5.294679501E0,-3.680698877E0,1.045506230E1
1.116671779E1,-6.965637149E0,-2.994663191E0,-8.212104481E-1,7.626433971E0
1.117674979E1,-5.487546401E0,1.472913623E-3,2.646674922E0,6.092458930E0
1.118678179E1,-3.895341977E0,2.636427092E0,3.598816808E0,5.922492664E0
1.119681379E1,-2.486751235E0,4.064036488E0,2.731367748E0,5.491875277E0
1.120684579E1,-1.354207251E0,5.023132467E0,2.061321858E0,5.595961478E0
1.121687779E1,-4.720829225E-1,5.932479751E0,1.699030715E0,6.189013140E0
1.122690979E1,3.027086002E-1,6.822560459E0,1.506554993E0,6.993473505E0
1.123694179E1,7.850122364E-1,7.861182665E0,1.322863544E0,8.010268725E0
1.124697379E1,1.093845649E0,8.838095695E0,9.000970618E-1,8.950899873E0
1.125700579E1,1.580508238E0,9.734162782E0,3.049557582E-1,9.866353398E0
1.126703779E1,3.038782187E0,1.127188110E1,-2.550221592E0,1.194960798E1
1.127706979E1,5.491971574E0,1.237674992E1,-5.232190307E0,1.451624971E1
1.128710179E1,5.516192495E0,1.201285430E1,-3.096302417E0,1.357660255E1
1.129713379E1,5.231291590E0,1.169349809E1,-1.172747392E0,1.286388921E1
1.130716579E1,5.908413196E0,1.164565617E1,1.777629207E-1,1.305994846E1
1.131719679E1,5.892498245E0,1.146707753E1,5.176879521E-1,1.290284478E1
1.132722879E1,5.340288953E0,1.118105279E1,2.517483616E-1,1.239346621E1
1.133726079E1,4.736987275E0,1.098656972E1,4.105037749E-2,1.196434067E1
1.134729279E1,4.182910382E0,1.130686148E1,-1.538461276E-1,1.205676260E1
1.135732479E1,3.709456361E0,1.153640212E1,-6.693354535E-1,1.213658314E1
1.136735679E1,3.725611925E0,1.167427478E1,-1.465975901E0,1.234171630E1
1.137738879E1,3.966264026E0,1.199983021E1,-2.525859752E0,1.288825601E1
1.138742079E1,3.981697751E0,1.235638056E1,-2.721467242E0,1.326425427E1
1.139745279E1,3.864609597E0,1.228718928E1,-2.257784795E0,1.307699583E1
1.140748479E1,3.953836938E0,1.203558359E1,-1.725522110E0,1.278536372E1
1.141751679E1,3.848934381E0,1.168915478E1,-1.216055306E0,1.236646375E1
1.142754879E1,3.687846221E0,1.136702933E1,-8.289480686E-1,1.197901166E1
1.143758079E1,3.404006001E0,1.105235557E1,-5.343297491E-1,1.157701727E1
1.144761279E1,3.117038398E0,1.075902649E1,-3.859062928E-1,1.120809989E1
1.145764479E1,2.808408030E0,1.045876495E1,-3.304583893E-1,1.083430305E1
1.146767579E1,2.508837338E0,1.011963930E1,-3.128833401E-1,1.043068840E1
1.147770779E1,2.272365558E0,9.731081300E0,-3.698510811E-1,9.999718912E0
1.148773979E1,2.034023254E0,9.502438211E0,-4.130185892E-1,9.726467339E0
1.149777179E1,1.739047889E0,9.408973977E0,-4.183197480E-1,9.577477239E0
1.150780379E1,1.626094301E0,9.410241653E0,-3.682998148E-1,9.556802572E0
1.151783579E1,1.783673254E0,9.351364869E0,-2.774854660E-1,9.523996713E0
1.152786779E1,2.386231166E0,9.089149407E0,-2.818937550E-1,9.401393525E0
1.153789979E1,2.982758260E0,8.676186878E0,-2.963340387E-1,9.179372497E0
1.154793179E1,3.207520259E0,7.959907638E0,-3.901923019E-1,8.590725572E0
1.155796379E1,3.425459143E0,6.972601182E0,-3.851099751E-1,7.778126206E0
1.156799579E1,3.795682034E0,5.493204167E0,-1.510956339E-1,6.678721735E0
1.157802779E1,4.187981672E0,1.870621936E0,-4.510191321E-1,4.608886544E0
1.158805979E1,5.329880909E0,-7.368823718E0,-2.972156527E-1,9.099204945E0
1.159809179E1,6.662536200E0,-2.257072487E1,6.274705589E-1,2.354189307E1
1.160812379E1,6.821207414E0,-3.934933825E1,2.837878289E0,4.003689355E1
1.161815579E1,6.126351203E0,-5.409873859E1,5.020338668E0,5.467549265E1
1.162818779E1,4.108853057E0,-6.147947777E1,3.001690959E0,6.168969937E1
1.163821879E1,-3.781050839E-2,-5.807237537E1,1.332013267E0,5.808766195E1
1.164825079E1,-2.638038000E0,-4.293232490E1,3.347074878E-1,4.301459978E1
1.165828279E1,-2.453223885E0,-2.780113178E1,-8.181902882E-1,2.792115096E1
1.166831479E1,-1.905867782E0,-1.879126360E1,-1.808981758E0,1.897409641E1
1.167834679E1,-2.209139177E0,-1.449937925E1,-3.246130886E0,1.502163973E1
1.168837879E1,-2.800507565E0,-1.250156575E1,-4.578145908E0,1.360483035E1
1.169841079E1,-3.501517385E0,-1.098198550E1,-5.107098484E0,1.260742180E1
1.170844279E1,-4.522588003E0,-9.481218081E0,-5.135950400E0,1.169295878E1
1.171847479E1,-6.257201364E0,-7.845544286E0,-5.685413255E0,1.153382235E1
1.172850679E1,-7.594029813E0,-6.166929710E0,-5.593466374E0,1.126885872E1
1.173853879E1,-7.398922845E0,-4.162498922E0,-2.549706452E0,8.864054351E0
1.174857079E1,-5.746435382E0,-1.083955083E0,1.621031781E0,6.068296488E0
1.175860279E1,-4.285445402E0,1.541314352E0,3.712273842E0,5.875514386E0
1.176863479E1,-3.065488175E0,3.063393118E0,3.324125726E0,5.461813526E0
1.177866679E1,-1.848569893E0,3.750117606E0,2.073949504E0,4.667103947E0
1.178869779E1,-9.342063557E-1,4.338325281E0,1.502500534E0,4.685223113E0
1.179872979E1,-3.737038481E-1,5.300199857E0,1.051169745E0,5.416339255E0
1.180876179E1,-1.419259207E-1,6.465372182E0,7.970713878E-1,6.515865500E0
1.181879379E1,5.332024790E-2,7.732463813E0,7.965246731E-1,7.773563612E0
1.182882579E1,2.269812372E-1,9.020202549E0,8.562949115E-1,9.063598373E0
1.183885779E1,3.845745894E-1,1.007292239E1,8.656627357E-1,1.011736305E1
1.184888979E1,6.697126720E-1,1.078552139E1,7.842320716E-1,1.083471304E1
1.185892179E1,1.069719525E0,1.115412519E1,4.788805300E-1,1.121553098E1
1.186895379E1,1.659221262E0,1.172144544E1,-3.147422065E-1,1.184248120E1
1.187898579E1,2.504096416E0,1.188929795E1,-6.695687574E-1,1.216857539E1
1.188901779E1,3.269930223E0,1.157433651E1,1.234669187E-1,1.202800704E1
1.189904979E1,3.724155384E0,1.131076976E1,4.651273306E-1,1.191718042E1
1.190908179E1,4.115250496E0,1.120055910E1,4.786647312E-1,1.194223307E1
1.191911379E1,4.515524859E0,1.110604938E1,3.786522371E-1,1.199490205E1
1.192914579E1,4.951347370E0,1.124910970E1,3.538150191E-2,1.229062902E1
1.193917679E1,5.011029900E0,1.138592168E1,2.358468221E-1,1.244207607E1
1.194920879E1,4.912628278E0,1.156197082E1,4.411432214E-1,1.257011110E1
1.195924079E1,4.702591906E0,1.196655254E1,6.051271784E-1,1.287163273E1
1.196927279E1,4.425817169E0,1.214940199E1,5.375485682E-1,1.294159127E1
1.197930479E1,4.538508217E0,1.250184057E1,2.417379284E-1,1.330234986E1
1.198933679E1,4.823189852E0,1.320681831E1,-3.095263805E-1,1.406339279E1
1.199936879E1,4.911697986E0,1.366704915E1,-1.845955456E0,1.463969129E1
1.200940079E1,4.989220955E0,1.378593824E1,-2.730060895E0,1.491300277E1
1.201943279E1,5.116735865E0,1.354170940E1,-2.622051712E0,1.471169720E1
1.202946479E1,5.364912162E0,1.288146520E1,-2.366558794E0,1.415326919E1
1.203949679E1,5.431938211E0,1.210665533E1,-2.127767862E0,1.343891558E1
1.204952879E1,5.095554326E0,1.163192808E1,-1.910335640E0,1.284195495E1
1.205956079E1,4.341361156E0,1.122658155E1,-1.738720591E0,1.216168982E1
1.206959292E1,3.495093049E0,1.065843333E1,-2.009377533E0,1.139541463E1
1.207962492E1,2.557013425E0,9.842046250E0,-3.070765872E0,1.062232531E1
1.208965692E1,1.821471410E0,8.828277635E0,-4.925133718E0,1.027196117E1
1.209968792E1,1.956353519E0,8.564210944E0,-2.796787566E0,9.219275941E0
1.210971992E1,2.301657039E0,8.447153195E0,3.077652723E-1,8.760521770E0
1.211975192E1,1.918837491E0,7.785267094E0,4.638824949E-1,8.031656617E0
1.212978392E1,1.725806138E0,7.154037945E0,4.844137867E-1,7.375182877E0
1.213981592E1,1.679125185E0,6.487171186E0,5.017244321E-1,6.719715678E0
1.214984792E1,1.583159219E0,5.792014428E0,7.116125768E-1,6.046504504E0
1.215987992E1,1.374727470E0,2.494995809E0,1.815254066E0,3.377873152E0
1.216991192E1,3.112740110E0,-9.290097744E0,2.731677650E0,1.017138780E1
1.217994392E1,4.534811900E0,-2.809335223E1,8.549787033E-1,2.846984276E1
1.218997592E1,2.623994742E0,-5.366621304E1,5.672676631E-1,5.373331892E1
1.220000792E1,2.142568919E-1,-8.043921018E1,2.175304556E0,8.046890325E1
1.221003992E1,-1.815945499E0,-9.220560433E1,4.545751748E0,9.233544816E1
1.222007192E1,-2.140968390E0,-7.175242756E1,4.071855969E0,7.189975394E1
1.223010392E1,-1.905556126E0,-4.498480050E1,5.579296231E-1,4.502859875E1
1.224013592E1,-2.198922483E0,-2.669791889E1,-9.148337263E-1,2.680393729E1
1.225016792E1,-2.350386565E0,-1.542330247E1,-7.898448139E-1,1.562134536E1
1.226019892E1,-1.896966127E0,-8.683378369E0,-1.197637820E0,8.968493560E0
1.227023092E1,-1.791541121E0,-4.207102067E0,-1.457628416E0,4.799375792E0
1.228026292E1,-1.891098739E0,-1.437397635E0,-2.238431096E0,3.263884216E0
1.229029492E1,-2.534063981E0,5.485746628E-1,-3.843154408E0,4.635973493E0
1.230032692E1,-5.780139903E0,3.801171400E0,-1.202052234E1,1.386909797E1
1.231035892E1,-9.986375413E0,6.971857417E0,-1.930714707E1,2.282762400E1
1.232039092E1,-6.655130117E0,7.112541425E0,-9.519173527E0,1.361960598E1
1.233042292E1,-3.513809987E0,7.060251530E0,-4.280009830E0,8.972875594E0
1.234045492E1,-1.238684250E0,6.874893624E0,-1.444904729E0,7.133459938E0
1.235048692E1,-1.337837825E-1,6.966053470E0,1.262682831E-1,6.968482097E0
1.236051892E1,2.894673610E-1,7.540330739E0,1.354187663E0,7.666433541E0
1.237055092E1,4.281677017E-1,8.131000092E0,1.787189185E0,8.336098324E0
1.238058292E1,4.709505361E-1,8.796977490E0,1.724855527E0,8.976844320E0
1.239061492E1,3.630836599E-1,9.735473728E0,1.928098311E0,9.931205443E0
1.240064692E1,8.678038399E-1,1.066149727E1,2.511343455E0,1.098760454E1
1.241067792E1,1.968352883E0,1.124685267E1,2.900470979E0,1.178044312E1
1.242070992E1,3.041875072E0,1.152164140E1,3.046305799E0,1.229964242E1
1.243074192E1,3.733355978E0,1.161090032E1,2.487987921E0,1.244753136E1
1.244077392E1,4.385402969E0,1.173128397E1,1.576554351E0,1.262300702E1
1.245080592E1,5.199558751E0,1.174637329E1,8.519375664E-1,1.287394634E1
1.246083792E1,5.398109729E0,1.138761504E1,5.801514546E-1,1.261562288E1
1.247086992E1,5.083921291E0,1.105566276E1,3.214506805E-2,1.216860584E1
1.248090192E1,4.769415933E0,1.084662480E1,-3.939988393E-1,1.185545583E1
1.249093392E1,4.425195025E0,1.066161422E1,-3.923733864E-1,1.155016561E1
1.250096592E1,4.283431036E0,1.059092372E1,-5.215950251E-1,1.143623662E1
1.251099792E1,4.078430579E0,1.068928792E1,-6.343030304E-1,1.145848212E1
1.252102992E1,3.746964787E0,1.081066676E1,-8.043511713E-1,1.146984053E1
1.253106192E1,3.749642812E0,1.105134049E1,-1.013478593E0,1.171405510E1
1.254109392E1,3.683577461E0,1.145266297E1,-1.094937909E0,1.208019541E1
1.255112592E1,3.227795480E0,1.189324482E1,-1.194782624E0,1.238125364E1
1.256115692E1,2.816533028E0,1.214911430E1,-1.396728496E0,1.254929030E1
1.257118892E1,2.535068825E0,1.231974424E1,-1.423337420E0,1.265814210E1
1.258122092E1,2.410663757E0,1.244215219E1,-1.276229661E0,1.273762981E1
1.259125292E1,2.430919096E0,1.248552216E1,-9.163751254E-1,1.275293592E1
1.260128492E1,2.608009624E0,1.242383287E1,-3.951403619E-1,1.270076664E1
1.261131692E1,3.135422921E0,1.206009278E1,1.013918889E-1,1.246142027E1
1.262134892E1,3.637029824E0,1.129713171E1,4.455941585E-1,1.187651990E1
1.263138092E1,3.958554472E0,1.065550972E1,5.563707554E-1,1.138066735E1
1.264141292E1,4.215410669E0,1.016834895E1,4.097448063E-1,1.101512135E1
1.265144492E1,4.446969764E0,9.790642208E0,2.711577554E-1,1.075666033E1
1.266147692E1,5.013411471E0,9.550335678E0,3.053883791E-2,1.078629402E1
1.267150892E1,6.113620645E0,8.836076651E0,-9.536850391E-1,1.078712766E1
1.268154092E1,7.249313647E0,7.037187188E0,-2.171402709E0,1.033390253E1
1.269157292E1,6.270084534E0,5.557757428E0,-1.793778412E0,8.568562813E0
1.270160492E1,4.739437258E0,5.990989915E0,2.066896447E-1,7.641789469E0
1.271163592E1,4.665881917E0,5.123346727E0,1.181266201E0,7.029546613E0
1.272166792E1,5.543059282E0,1.417721754E0,1.394090817E0,5.888881929E0
1.273169992E1,7.098881745E0,-8.315703110E0,1.969638101E0,1.110965861E1
1.274173192E1,8.055213161E0,-2.421730080E1,-1.615024352E-1,2.552234707E1
1.275176392E1,6.563656275E0,-4.189633862E1,-8.962717402E-1,4.241683718E1
1.276179592E1,8.042705966E0,-6.143280295E1,1.128068583E1,6.297561648E1
1.277182792E1,3.946745435E0,-6.842103491E1,3.241123915E0,6.861136715E1
1.278185992E1,-2.252442487E0,-6.301631783E1,-4.934553582E0,6.324934489E1
1.279189192E1,-4.422097170E0,-4.620496472E1,-2.978574577E0,4.651156431E1
1.280192392E1,-4.131879977E0,-2.907286376E1,-2.199423736E0,2.944726310E1
1.281195592E1,-3.806456698E0,-1.791956186E1,-1.311823416E0,1.836629224E1
1.282198792E1,-4.814874819E0,-1.145654084E1,-1.774348699E0,1.255323309E1
1.283201992E1,-6.675538069E0,-8.378695164E0,-2.913888584E0,1.110207583E1
1.284205192E1,-8.458792078E0,-6.193377251E0,-3.085769243E0,1.092845172E1
1.285208392E1,-8.352581499E0,-4.931541097E0,-2.654043583E0,1.005632451E1
1.286211592E1,-8.276866488E0,-3.877229058E0,-7.993273167E-1,9.174875922E0
1.287214792E1,-8.489738467E0,-2.466718090E0,3.209099885E0,9.405247442E0
1.288217892E1,-7.203869087E0,-8.991965175E-1,3.895402204E0,8.238837450E0
1.289221092E1,-5.068766477E0,3.690049160E-1,3.035485527E0,5.919690077E0
1.290224292E1,-3.605117767E0,1.675991516E0,2.916054978E0,4.930435915E0
1.291227492E1,-2.854224473E0,3.314197739E0,1.919862508E0,4.776649039E0
1.292230692E1,-2.517290950E0,4.230689151E0,3.614871508E-1,4.936208806E0
1.293233892E1,-2.145413882E0,4.674572341E0,-4.000044414E-1,5.158917604E0
1.294237092E1,-1.731991177E0,5.271654335E0,-7.888326609E-1,5.604675712E0
1.295240292E1,-1.395985461E0,6.274391009E0,-1.004198989E0,6.505780011E0
1.296243492E1,-1.272931831E0,7.526635391E0,-1.060216557E0,7.706792776E0
1.297246692E1,-8.818874435E-1,8.877310631E0,-1.264738128E0,9.010212652E0
1.298249892E1,-1.181690124E-1,1.011213265E1,-1.552418214E0,1.023128501E1
1.299253092E1,4.937975080E-1,1.102693071E1,-1.769881427E0,1.117897657E1
1.300256292E1,1.691063299E0,1.211972854E1,-3.038438371E0,1.260871217E1
1.301259492E1,3.293227285E0,1.248173316E1,-3.461443493E0,1.336490179E1
1.302262692E1,3.570782040E0,1.194958041E1,-1.509797859E0,1.256274038E1
1.303265792E1,3.614939920E0,1.165092334E1,-3.165653318E-1,1.220295124E1
1.304268992E1,3.866644720E0,1.146344641E1,1.700925797E-1,1.209919321E1
1.305272192E1,3.910909604E0,1.129290301E1,4.936365634E-1,1.196112659E1
1.306275392E1,3.929880896E0,1.117136863E1,5.453025609E-1,1.185499033E1
1.307278621E1,4.128159978E0,1.114789907E1,4.668352658E-1,1.189686067E1
1.308281821E1,4.114888261E0,1.107306173E1,6.971114820E-1,1.183346804E1
1.309285021E1,4.010125744E0,1.096168514E1,7.512251240E-1,1.169632373E1
1.310288221E1,3.597199176E0,1.089621152E1,8.499144298E-1,1.150606892E1
1.311291421E1,3.429000509E0,1.101598823E1,7.410065299E-1,1.156110426E1
1.312294621E1,3.333548514E0,1.118786830E1,7.007028419E-1,1.169495307E1
1.313297821E1,3.141628863E0,1.135902800E1,6.728367662E-1,1.180466257E1
1.314301021E1,2.875405135E0,1.151266710E1,6.055212442E-1,1.188175553E1
1.315304221E1,2.580957773E0,1.165797859E1,4.184150577E-1,1.194758884E1
1.316307421E1,2.474508335E0,1.196372248E1,-2.159493685E-1,1.221885761E1
1.317310621E1,2.393923471E0,1.223829019E1,-8.155906892E-1,1.249687179E1
1.318313721E1,2.331752804E0,1.230829773E1,-7.941432483E-1,1.255236741E1
1.319316921E1,2.415578634E0,1.223449535E1,-6.056254343E-1,1.248537859E1
1.320320121E1,2.860714590E0,1.183831374E1,-3.815332333E-1,1.218502884E1
1.321323321E1,3.571094574E0,1.130070436E1,-8.156982780E-2,1.185180531E1
1.322326521E1,3.978593757E0,1.090949406E1,1.199948055E-1,1.161295258E1
1.323329721E1,4.430468629E0,1.047132945E1,1.646856594E-1,1.137123186E1
1.324332921E1,5.053597630E0,9.707086666E0,2.668897265E-1,1.094703662E1
1.325336121E1,5.455897177E0,8.469550955E0,-2.145460367E-2,1.007474901E1
1.326339321E1,4.856986466E0,6.529495672E0,-1.909057438E0,8.358775721E0
1.327342521E1,4.890114451E0,5.388803886E0,-1.302585985E0,7.392506808E0
1.328345721E1,5.210281375E0,5.206418120E0,3.309559508E-1,7.373150852E0
1.329348921E1,5.268644773E0,3.748402618E0,1.241491352E0,6.584105156E0
1.330352121E1,5.529618287E0,3.949226993E-1,2.323908033E0,6.011088993E0
1.331355321E1,4.570626973E0,-8.425439560E0,6.449806309E-1,9.607011123E0
1.332358521E1,5.013854690E0,-2.567463744E1,-2.116025118E-1,2.616047634E1
1.333361621E1,5.230201669E0,-4.484556192E1,1.978567969E0,4.519285524E1
1.334364821E1,4.847530933E0,-6.453985431E1,3.575801582E0,6.482034948E1
1.335368021E1,2.497339958E0,-7.748103361E1,2.906229719E-1,7.752181459E1
1.336371221E1,1.219173700E-2,-7.014774108E1,-1.886864916E0,7.017311442E1
1.337374421E1,-1.301664172E0,-4.789814997E1,-1.946452721E0,4.795535193E1
1.338377621E1,-1.882223542E0,-2.803192372E1,-1.516179510E0,2.813592567E1
1.339380821E1,-2.365031209E0,-1.605746458E1,-2.383840240E0,1.640482355E1
1.340384021E1,-3.024158301E0,-9.895384551E0,-4.082466912E0,1.112343045E1
1.341387221E1,-3.801916335E0,-6.219350583E0,-5.675675887E0,9.238408211E0
1.342390421E1,-7.958206099E0,-2.703391160E0,-1.357590743E1,1.596704827E1
1.343393621E1,-1.311472583E1,1.078805441E-1,-1.800870617E1,2.227826676E1
1.344396821E1,-6.639566583E0,2.337044388E-1,-2.703492901E0,7.172679837E0
1.345400021E1,-3.947824831E0,6.274325520E-1,1.405587612E0,4.237295014E0
1.346403221E1,-2.693055037E0,1.400346753E0,3.686754838E0,4.775529049E0
1.347406421E1,-1.359683754E0,2.483454575E0,5.927827706E0,6.569279097E0
1.348409621E1,-7.834099531E-2,3.827800789E0,7.371143893E0,8.306139807E0
1.349412721E1,1.064231913E0,5.113912244E0,7.578420671E0,9.204191865E0
1.350415921E1,1.955563122E0,5.940599195E0,6.373973769E0,8.929864922E0
1.351419121E1,2.407187879E0,6.511741771E0,4.725269455E0,8.397946523E0
1.352422321E1,2.659134169E0,7.413791145E0,3.864634155E0,8.773294183E0
1.353425521E1,2.963520920E0,8.668196073E0,3.477916853E0,9.798774671E0
1.354428721E1,2.963058698E0,9.871131470E0,3.080279292E0,1.075672226E1
1.355431921E1,2.702111789E0,1.089542332E1,2.526391264E0,1.150627265E1
1.356435121E1,2.699913821E0,1.145357397E1,5.934339166E-1,1.178244691E1
1.357438321E1,3.154814335E0,1.151656953E1,-1.809542506E0,1.207719633E1
1.358441521E1,3.473421806E0,1.128822406E1,-2.446790194E0,1.206132015E1
1.359444721E1,3.404682232E0,1.102553556E1,-2.155833912E0,1.173890606E1
1.360447921E1,3.064277802E0,1.080693507E1,-1.811041147E0,1.137802769E1
1.361451121E1,2.884292025E0,1.067271223E1,-1.560514269E0,1.116517495E1
1.362454321E1,2.842274226E0,1.061649359E1,-1.399683094E0,1.107915032E1
1.363457521E1,2.780327946E0,1.058607521E1,-1.267416737E0,1.101823747E1
1.364460621E1,2.759462450E0,1.060867469E1,-1.281420819E0,1.103633323E1
1.365463821E1,2.621496812E0,1.067511193E1,-1.256909291E0,1.106390895E1
1.366467021E1,2.587823574E0,1.082643553E1,-1.296891382E0,1.120671515E1
1.367470221E1,2.672771046E0,1.109668214E1,-1.447329715E0,1.150542581E1
1.368473421E1,2.599590218E0,1.143300463E1,-1.768045401E0,1.185737951E1
1.369476621E1,2.634319755E0,1.176337699E1,-2.109898771E0,1.223798806E1
1.370479821E1,2.943318498E0,1.202728289E1,-2.246304957E0,1.258429749E1
1.371483021E1,3.170177017E0,1.218302114E1,-1.994822059E0,1.274579701E1
1.372486221E1,3.414549993E0,1.231119795E1,-1.437346764E0,1.285654356E1
1.373489421E1,3.681468955E0,1.232953014E1,-8.662919692E-1,1.289654950E1
1.374492621E1,3.792599382E0,1.224993083E1,-4.731474081E-1,1.283232184E1
1.375495821E1,3.834269564E0,1.212763982E1,-2.226532012E-1,1.272127529E1
1.376499021E1,3.678077278E0,1.184287808E1,-1.291130266E-1,1.240155973E1
1.377502221E1,3.497893866E0,1.120773714E1,-2.336594152E-1,1.174322060E1
1.378505421E1,3.315994880E0,1.063776693E1,-4.409087846E-1,1.115133660E1
1.379508521E1,3.060442905E0,1.027498696E1,-5.499744862E-1,1.073518233E1
1.380511721E1,2.845933998E0,9.953123467E0,-5.281376208E-1,1.036546846E1
1.381514921E1,3.029727189E0,9.758805873E0,-5.366112596E-1,1.023237463E1
1.382518121E1,3.615914651E0,9.527462540E0,-6.234272093E-1,1.020960541E1
1.383521321E1,4.297071128E0,8.496204903E0,-1.119529178E0,9.586639850E0
1.384524521E1,6.196155848E0,5.569323805E0,-4.562657803E0,9.498818935E0
1.385527721E1,4.929924341E0,5.091533781E0,-2.594755155E0,7.547226283E0
1.386530921E1,2.935939019E0,5.932129503E0,5.994403227E-1,6.645993309E0
1.387534121E1,3.676244760E0,3.238224866E0,5.425321501E-1,4.929017849E0
1.388537321E1,4.221803137E0,-5.168831633E0,7.805190166E-1,6.719349084E0
1.389540521E1,5.867110804E0,-2.142872156E1,2.091145581E-1,2.221838936E1
1.390543721E1,6.244898238E0,-4.032386796E1,5.288256919E-1,4.080799845E1
1.391546921E1,6.781675558E0,-5.959008802E1,9.554105963E0,6.073096949E1
1.392550121E1,6.462452667E0,-6.782012358E1,9.045919188E0,6.872525817E1
1.393553321E1,1.457320414E0,-6.156478631E1,-3.009160193E0,6.165550860E1
1.394556521E1,-1.374696041E0,-4.575312464E1,-3.746772999E0,4.592686045E1
1.395559621E1,-1.859873292E0,-2.858907917E1,-3.638642778E0,2.887965197E1
1.396562821E1,-1.930727220E0,-1.835700610E1,-2.342776998E0,1.860634259E1
1.397566021E1,-2.629002590E0,-1.246198127E1,-1.290877520E0,1.280152321E1
1.398569221E1,-3.742878753E0,-9.932140149E0,-2.640000910E0,1.093737419E1
1.399572421E1,-5.478609517E0,-8.932392572E0,-4.155920219E0,1.127273135E1
1.400575621E1,-7.189970255E0,-8.649313660E0,-5.414125253E0,1.248275015E1
1.401578821E1,-7.999989717E0,-8.636576670E0,-4.678234452E0,1.266791891E1
1.402582021E1,-7.976239496E0,-8.393778641E0,-1.996435890E0,1.174996479E1
1.403585221E1,-7.299054741E0,-7.716634231E0,3.603709173E-1,1.062791189E1
1.404588421E1,-6.907817541E0,-6.482063643E0,2.648716185E0,9.836197929E0
1.405591621E1,-5.429454314E0,-4.078985479E0,5.436805433E0,8.699192491E0
1.406594883E1,-2.929513806E0,-1.133568708E0,6.881901512E0,7.564892437E0
1.407598083E1,-1.162631417E0,1.600259548E0,7.839745603E0,8.085428470E0
1.408601283E1,4.176701315E-2,3.759916955E0,7.310166789E0,8.220538819E0
1.409604483E1,4.106552178E-1,4.974423991E0,5.087077618E0,7.126842951E0
1.410607583E1,3.203884607E-1,6.073642647E0,3.159739444E0,6.853884820E0
1.411610783E1,3.686455315E-1,7.265944882E0,1.894720066E0,7.517966393E0
1.412613983E1,3.374164297E-1,8.296692642E0,9.311439496E-1,8.355596190E0
1.413617183E1,4.383466078E-1,9.300361362E0,4.645706757E-1,9.322268775E0
1.414620383E1,6.626093283E-1,1.067860155E1,-1.772969341E-1,1.070060822E1
1.415623583E1,2.528467610E0,1.341406819E1,-6.670087879E0,1.519277612E1
1.416626783E1,4.101613619E0,1.242682547E1,-5.312013572E0,1.412326852E1
1.417629983E1,3.755429217E0,1.160475724E1,-1.838365186E0,1.233504056E1
1.418633183E1,3.684458637E0,1.128526420E1,-5.149163353E-1,1.188265805E1
1.419636383E1,3.580764114E0,1.117005417E1,5.263663530E-3,1.172996205E1
1.420639583E1,3.454617453E0,1.105327592E1,3.383489510E-2,1.158060599E1
1.421642783E1,3.546815765E0,1.100507265E1,3.077855548E-2,1.156254614E1
1.422645983E1,3.593455203E0,1.118029265E1,4.862718126E-2,1.174368888E1
1.423649183E1,3.504335743E0,1.141336500E1,1.367552461E-1,1.194001557E1
1.424652283E1,3.296022838E0,1.165598820E1,2.568190305E-1,1.211576591E1
1.425655483E1,3.345873275E0,1.181117681E1,2.896388672E-1,1.227935896E1
1.426658683E1,3.577466869E0,1.197131568E1,1.080167842E-1,1.249489239E1
1.427661883E1,3.765125070E0,1.218092666E1,-2.314714237E-1,1.275165559E1
1.428665083E1,3.830903322E0,1.237582956E1,-7.183876725E-1,1.297509378E1
1.429668283E1,4.229821132E0,1.305563036E1,-2.902339164E0,1.402727499E1
1.430671483E1,4.824374790E0,1.358028933E1,-3.983757725E0,1.495222980E1
1.431674683E1,4.954240572E0,1.345305626E1,-2.995401694E0,1.464587497E1
1.432677883E1,4.853023223E0,1.324294007E1,-2.194212551E0,1.427381746E1
1.433681083E1,4.589293624E0,1.289081139E1,-1.650226783E0,1.378252091E1
1.434684283E1,4.195351211E0,1.235977311E1,-1.232738070E0,1.311047697E1
1.435687483E1,3.738447441E0,1.161245100E1,-8.808181340E-1,1.223114255E1
1.436690683E1,3.379741518E0,1.104566869E1,-6.172629283E-1,1.156764726E1
1.437693883E1,3.008459111E0,1.065860407E1,-4.487691236E-1,1.108413554E1
1.438697083E1,2.774708480E0,1.034119148E1,-4.622475404E-1,1.071694551E1
1.439700183E1,2.502559767E0,1.007362990E1,-4.331734300E-1,1.038886250E1
1.440703383E1,2.270092453E0,9.767909988E0,-2.698158194E-1,1.003185854E1
1.441706583E1,2.548262190E0,9.620684114E0,-1.094062288E-1,9.953048414E0
1.442709783E1,3.611964272E0,9.161060219E0,-1.166359309E0,9.916234380E0
1.443712983E1,5.047625284E0,7.517290955E0,-3.677067756E0,9.772871205E0
1.444716183E1,4.286597011E0,6.013644367E0,-3.694859664E0,8.257773334E0
1.445719383E1,2.814980008E0,6.885194079E0,1.771514115E-1,7.440523676E0
1.446722583E1,2.346334883E0,6.714007486E0,2.273550204E-1,7.115818590E0
1.447725783E1,1.850119697E0,5.673316535E0,8.036980373E-1,6.021245215E0
1.448728983E1,1.947254521E0,4.195961952E-1,2.929816985E0,3.542836251E0
1.449732183E1,3.002896655E0,-1.481549025E1,3.350991343E0,1.548371023E1
1.450735383E1,2.915489260E0,-3.609625152E1,1.163698826E0,3.623249434E1
1.451738583E1,4.307624768E-1,-6.385754037E1,2.333925483E0,6.390162930E1
1.452741783E1,-2.975320309E0,-9.140994329E1,6.080008510E0,9.166022457E1
1.453744983E1,-5.945338948E0,-9.430528802E1,2.229281958E0,9.451880290E1
1.454748183E1,-5.504967011E0,-6.733245644E1,-2.744096552E0,6.761282731E1
1.455751383E1,-4.483995211E0,-4.078754281E1,-3.662958425E0,4.119644555E1
1.456754483E1,-3.918391117E0,-2.265140242E1,-2.582915128E0,2.313247222E1
1.457757683E1,-3.575723814E0,-1.149010854E1,-2.191383229E0,1.223153938E1
1.458760883E1,-4.120246941E0,-5.090560804E0,-4.361260400E0,7.868343945E0
1.459764083E1,-5.907928462E0,-7.852921718E-1,-7.655446043E0,9.701863565E0
1.460767283E1,-6.799611307E0,2.531139788E0,-8.521413419E0,1.119177686E1
1.461770483E1,-5.242425274E0,4.501703503E0,-4.787449915E0,8.406428128E0
1.462773683E1,-4.276592132E0,6.132293143E0,8.279715836E-2,7.476704811E0
1.463776883E1,-3.933498568E0,7.745244073E0,4.116907597E0,9.613019551E0
1.464780083E1,-2.843142537E0,8.640693694E0,4.976098634E0,1.036853917E1
1.465783283E1,-1.334915533E0,8.920319826E0,5.154966130E0,1.038882963E1
1.466786483E1,-1.275409296E-1,8.802790791E0,4.892589869E0,1.007188304E1
1.467789683E1,7.546039376E-1,8.681334182E0,3.501870557E0,9.391383694E0
1.468792883E1,1.361107697E0,8.873746753E0,2.509946555E0,9.321793138E0
1.469796083E1,1.542707451E0,9.452543335E0,2.114047955E0,9.808145622E0
1.470799283E1,1.758274265E0,1.005624496E1,1.873616295E0,1.037930774E1
1.471802383E1,2.208111967E0,1.049443647E1,1.814013872E0,1.087656203E1
1.472805583E1,2.856009920E0,1.078791875E1,1.714597172E0,1.129051935E1
1.473808783E1,3.400046559E0,1.134214007E1,1.412270395E0,1.192472078E1
1.474811983E1,4.638426900E0,1.204914212E1,-1.513657606E0,1.299953804E1
1.475815183E1,5.463402078E0,1.118220235E1,-2.374564801E0,1.267000275E1
1.476818383E1,5.816290898E0,1.079623466E1,-1.332498586E0,1.233545602E1
1.477821583E1,6.009032668E0,1.062732263E1,-1.042638146E0,1.225298144E1
1.478824783E1,6.082361430E0,1.045524025E1,-1.083777986E0,1.214420619E1
1.479827983E1,5.772353750E0,1.021541553E1,-1.143056400E0,1.178903559E1
1.480831183E1,5.503744358E0,9.960441842E0,-1.212921272E0,1.144433404E1
1.481834383E1,5.474627563E0,9.840232444E0,-1.272318458E0,1.133227761E1
1.482837583E1,5.443910969E0,9.930153265E0,-1.203613089E0,1.138827445E1
1.483840783E1,5.489635026E0,1.025088708E1,-1.046021857E0,1.167522763E1
1.484843983E1,5.445214314E0,1.061377464E1,-9.186256456E-1,1.196438231E1
1.485847083E1,5.289487758E0,1.116295098E1,-7.998090541E-1,1.237860452E1
1.486850283E1,4.896054929E0,1.146743888E1,-6.643933868E-1,1.248658989E1
1.487853483E1,4.568332525E0,1.150398749E1,-5.626851636E-1,1.239064183E1
1.488856683E1,4.305149349E0,1.149175745E1,-6.515260041E-1,1.228899046E1
1.489859883E1,3.957797257E0,1.141630148E1,-8.972120456E-1,1.211614988E1
1.490863083E1,3.589169487E0,1.121902110E1,-1.141775275E0,1.183436618E1
1.491866283E1,3.404645394E0,1.103193943E1,-1.273154610E0,1.161534419E1
1.492869483E1,3.278620355E0,1.083119282E1,-1.315938687E0,1.139279527E1
1.493872683E1,3.244654464E0,1.058489524E1,-1.335240930E0,1.115126262E1
1.494875883E1,3.337688928E0,1.033619561E1,-1.387092723E0,1.094993760E1
1.495879083E1,3.359320117E0,1.018207938E1,-1.434841086E0,1.081751086E1
1.496882283E1,3.389582967E0,1.003259414E1,-1.404904658E0,1.068250790E1
1.497885483E1,3.652250419E0,9.815750152E0,-1.771446288E0,1.062195397E1
1.498888683E1,4.726185421E0,9.227382848E0,-4.341768122E0,1.123976749E1
1.499891883E1,6.106255492E0,8.665497583E0,-3.756464759E0,1.124669871E1
1.500894983E1,4.951881806E0,7.934464649E0,-6.624515265E-1,9.376337489E0
1.501898183E1,3.355787230E0,7.629270397E0,-6.737039083E-1,8.361874890E0
1.502901383E1,2.507447455E0,7.412270869E0,-2.476208851E-1,7.828816531E0
1.503904583E1,2.208813633E0,5.318346106E0,5.505188620E-1,5.785043992E0
1.504907783E1,1.772994338E0,-1.066371921E0,1.710343907E0,2.684387133E0
1.505910983E1,1.906552784E0,-1.491965956E1,1.735345432E0,1.514075985E1
1.506914029E1,2.802144200E0,-3.260621690E1,8.673911726E-1,3.273789486E1
1.507917229E1,2.652521261E0,-5.574591795E1,1.903276881E0,5.584143355E1
1.508920429E1,1.013269701E0,-7.619433743E1,6.033138399E0,7.643953513E1
1.509923629E1,1.762213388E0,-7.981653316E1,6.891740037E0,8.013289239E1
1.510926829E1,1.052518552E0,-5.780493776E1,9.609555401E-2,5.781459902E1
1.511930029E1,-1.186595499E0,-3.225118800E1,-3.289676270E0,3.244023899E1
1.512933229E1,-1.988880995E0,-1.884050651E1,-3.552427338E0,1.927537479E1
1.513936429E1,-2.618434332E0,-1.141354510E1,-3.330626076E0,1.217449301E1
1.514939629E1,-3.276457762E0,-7.300694300E0,-3.510256634E0,8.738261518E0
1.515942829E1,-4.581372109E0,-4.765481341E0,-4.575827487E0,8.039712682E0
1.516945929E1,-6.420797687E0,-3.391996697E0,-6.120231507E0,9.496816215E0
1.517949129E1,-6.561742482E0,-3.496128591E0,-5.828084732E0,9.447007525E0
1.518952329E1,-5.916260744E0,-3.764260851E0,-4.872999943E0,8.539199576E0
1.519955529E1,-5.342585154E0,-3.084224408E0,-3.632957531E0,7.159192465E0
1.520958729E1,-4.788790390E0,-1.787689707E0,-2.103711247E0,5.527562654E0
1.521961929E1,-4.323995510E0,-1.375025386E-1,8.900514722E-2,4.327096721E0
1.522965129E1,-3.701278152E0,1.898196235E0,2.592975263E0,4.901645604E0
1.523968329E1,-2.688975434E0,3.647139367E0,3.149757662E0,5.518440702E0
1.524971529E1,-9.660448104E-1,4.632025076E0,2.511424731E0,5.356879041E0
1.525974729E1,5.880612025E-1,5.571674970E0,2.218827721E0,6.025991571E0
1.526977929E1,1.819651318E0,6.749271458E0,2.207299351E0,7.330482014E0
1.527981129E1,2.761607793E0,7.954518260E0,2.216802245E0,8.707183847E0
1.528984329E1,3.209400432E0,9.077641502E0,2.094950949E0,9.853560060E0
1.529987529E1,3.294627693E0,1.032300196E1,2.196994802E0,1.105647897E1
1.530990729E1,3.490598879E0,1.162060904E1,2.014033086E0,1.229955951E1
1.531993829E1,4.445107718E0,1.171527312E1,-3.075150114E-1,1.253400065E1
1.532997029E1,5.692757358E0,1.136524242E1,-1.544499184E0,1.280475300E1
1.534000229E1,6.237056537E0,1.121160683E1,-1.573354754E0,1.292580547E1
1.535003429E1,5.858535862E0,1.097565881E1,-1.443693771E0,1.252484653E1
1.536006629E1,5.694800960E0,1.078127865E1,-1.623661859E0,1.230052866E1
1.537009829E1,5.610488788E0,1.075047786E1,-1.692667190E0,1.224399775E1
1.538013029E1,5.658237151E0,1.069976262E1,-1.598469715E0,1.220883587E1
1.539016229E1,5.812743977E0,1.063630980E1,-1.522314994E0,1.221624008E1
1.540019429E1,5.995947769E0,1.059592192E1,-1.655654899E0,1.228682807E1
1.541022629E1,6.292493988E0,1.059613242E1,-1.771239735E0,1.245033305E1
1.542025829E1,6.459836622E0,1.074328812E1,-1.926941147E0,1.268309233E1
1.543029029E1,6.640149550E0,1.121093791E1,-1.788544423E0,1.315201908E1
1.544032229E1,6.645613189E0,1.167425373E1,-1.723212460E0,1.354333179E1
1.545035429E1,6.204679334E0,1.191176997E1,-1.723649247E0,1.354102198E1
1.546038629E1,5.646987108E0,1.195655730E1,-1.741768599E0,1.333722174E1
1.547041729E1,5.044045619E0,1.185555250E1,-1.828385012E0,1.301305164E1
1.548044929E1,4.434817203E0,1.164369735E1,-1.836516296E0,1.259428774E1
1.549048129E1,3.860256052E0,1.145592689E1,-1.866397761E0,1.223205944E1
1.550051329E1,3.312607588E0,1.122714054E1,-1.862507608E0,1.185288945E1
1.551054529E1,2.852272380E0,1.096780951E1,-1.848736538E0,1.148242701E1
1.552057729E1,2.618388432E0,1.060786193E1,-1.812735232E0,1.107559036E1
1.553060929E1,2.645430635E0,1.026562908E1,-1.645520067E0,1.072796252E1
1.554064129E1,2.713590750E0,1.003263858E1,-1.386859127E0,1.048526537E1
1.555067329E1,2.896734900E0,9.860793593E0,-1.373963677E0,1.036890060E1
1.556070529E1,3.519005238E0,9.632967360E0,-1.743730924E0,1.040279076E1
1.557073729E1,4.270222760E0,8.721741366E0,-2.737122577E0,1.008937138E1
1.558076929E1,3.488921898E0,6.907767255E0,-4.539920905E0,8.972218582E0
1.559080129E1,2.362706356E0,7.274395278E0,-1.938959514E0,7.890422801E0
1.560083329E1,2.117081783E0,8.008058290E0,-1.250497234E-1,8.284121576E0
1.561086429E1,2.423692815E0,6.970655229E0,-1.194211936E-1,7.380960819E0
1.562089629E1,2.403536586E0,2.948243315E0,-4.177835584E-1,3.826704831E0
1.563092829E1,2.408160710E0,-8.103101272E0,2.580329490E-1,8.457308628E0
1.564096029E1,3.555590389E0,-2.320131668E1,1.481295022E0,2.351887653E1
1.565099229E1,3.181575871E0,-4.492044838E1,4.149732696E0,4.522377018E1
1.566102429E1,3.428977997E0,-6.684044832E1,7.244024255E0,6.731923432E1
1.567105629E1,2.173707389E0,-7.976818371E1,6.714696872E0,8.007980576E1
1.568108829E1,1.380064808E0,-7.087523762E1,-3.131897342E-1,7.088936433E1
1.569112029E1,1.117993480E0,-4.450077267E1,-3.218654235E0,4.463102522E1
1.570115229E1,-7.762719646E-2,-2.513141707E1,-2.995191779E0,2.530939201E1
1.571118429E1,-9.389173112E-1,-1.466819070E1,-2.474934012E0,1.490512269E1
1.572121629E1,-1.846760764E0,-8.090711607E0,-2.193036237E0,8.583679139E0
1.573124829E1,-4.749315252E0,-3.802044389E0,-7.425756887E0,9.599656361E0
1.574128029E1,-1.140758912E1,-1.086409160E0,-2.478434039E1,2.730525413E1
1.575131229E1,-8.628053768E0,-1.851710871E0,-1.975337265E1,2.163487638E1
1.576134429E1,-4.481847528E0,-3.153016316E0,-8.720797625E0,1.029955244E1
1.577137529E1,-2.910636363E0,-3.930044618E0,-3.236191204E0,5.864297762E0
1.578140729E1,-2.725663789E0,-4.481810106E0,-3.106000024E-1,5.254744264E0
1.579143929E1,-1.854985312E0,-4.044994445E0,6.851545107E-1,4.502486788E0
1.580147129E1,-9.973965575E-1,-2.681920769E0,2.350477781E0,3.703004821E0
1.581150329E1,-3.205582492E-1,-6.899118054E-1,4.609969379E0,4.672317793E0
1.582153529E1,6.722416659E-1,1.724057967E0,6.344728335E0,6.609074245E0
1.583156729E1,2.669960874E0,3.637492046E0,6.656766168E0,8.041926092E0
1.584159929E1,4.483833827E0,5.195172755E0,6.099041197E0,9.181115905E0
1.585163129E1,5.675504563E0,6.747887422E0,4.968907728E0,1.012103654E1
1.586166329E1,6.298942882E0,8.233321688E0,3.840102746E0,1.105489288E1
1.587169529E1,6.202426987E0,9.478012052E0,2.817056939E0,1.167213017E1
1.588172729E1,5.562874326E0,1.029309462E1,1.738530411E0,1.182860328E1
1.589175929E1,4.668640048E0,1.096781887E1,1.159941332E0,1.197642328E1
1.590179129E1,3.651017826E0,1.146613729E1,3.613450634E-1,1.203880417E1
1.591182329E1,2.774173459E0,1.162554409E1,-1.204618226E0,1.201251093E1
1.592185429E1,2.241905219E0,1.190227760E1,-2.627097275E0,1.239322360E1
1.593188629E1,1.906987816E0,1.210123262E1,-2.892684242E0,1.258745628E1
1.594191829E1,2.189565915E0,1.196900018E1,-2.679935639E0,1.245926239E1
1.595195029E1,2.778322644E0,1.165959359E1,-2.491767854E0,1.224230806E1
1.596198229E1,3.384804622E0,1.135793574E1,-2.369495850E0,1.208611257E1
1.597201429E1,4.132287528E0,1.115978763E1,-2.589204686E0,1.217869620E1
1.598204629E1,4.686885115E0,1.085070148E1,-2.857892139E0,1.216026982E1
1.599207829E1,5.181303159E0,1.050968601E1,-3.211582612E0,1.214963643E1
1.600211029E1,5.689853046E0,1.035693686E1,-3.813692628E0,1.241711803E1
1.601214229E1,5.932517173E0,1.037922410E1,-4.429122308E0,1.274912458E1
1.602217429E1,5.926252466E0,1.048527856E1,-5.080398928E0,1.307180126E1
1.603220629E1,5.716695274E0,1.065621022E1,-5.551965176E0,1.330637961E1
1.604223829E1,5.386099548E0,1.076953978E1,-5.250289194E0,1.313615591E1
1.605227029E1,5.083398550E0,1.079582419E1,-4.390288902E0,1.271477083E1
1.606230229E1,4.704814725E0,1.067547212E1,-3.431148191E0,1.216033570E1
1.607233396E1,4.355704668E0,1.055873012E1,-2.831589024E0,1.176761833E1
1.608236596E1,4.055402197E0,1.041392850E1,-2.548970872E0,1.146269804E1
1.609239796E1,3.818789645E0,1.028771869E1,-2.326321764E0,1.121749005E1
1.610242996E1,3.798323806E0,1.008927705E1,-2.151172220E0,1.099310316E1
1.611246196E1,4.134530520E0,9.792621490E0,-1.999039217E0,1.081600370E1
1.612249396E1,4.691921907E0,9.461646280E0,-1.920300465E0,1.073426455E1
1.613252596E1,5.281929063E0,9.115816219E0,-1.973486738E0,1.071874666E1
1.614255796E1,6.112341274E0,8.522261265E0,-1.978470612E0,1.067258164E1
1.615258996E1,7.075049663E0,7.163057275E0,-1.991013767E0,1.026303333E1
1.616262196E1,8.542580339E0,4.479672364E0,-2.471698748E0,9.957531724E0
1.617265396E1,7.508296183E0,3.721950399E0,-2.260281118E0,8.679648442E0
1.618268596E1,6.451899612E0,2.685593405E0,-2.419109475E0,7.395370930E0
1.619271796E1,6.533699820E0,-2.263198732E0,-2.946050025E0,7.516017069E0
1.620274996E1,7.329548555E0,-1.239311510E1,-2.984072714E0,1.470429440E1
1.621278096E1,8.055361680E0,-2.758197580E1,-1.269607835E0,2.876223470E1
1.622281296E1,8.348521192E0,-4.516499298E1,4.731278054E0,4.617314575E1
1.623284496E1,5.697760236E0,-5.482237597E1,5.874887016E0,5.542988072E1
1.624287696E1,6.373386124E-1,-5.208653861E1,-8.209175757E-1,5.209690596E1
1.625290896E1,-1.460473087E0,-4.617269277E1,-1.986599119E0,4.623848089E1
1.626294096E1,-2.194444832E0,-3.792095235E1,-2.112350509E0,3.804308399E1
1.627297296E1,-2.576583763E0,-2.872662206E1,-2.281101152E0,2.893200686E1
1.628300496E1,-3.500941142E0,-2.197238163E1,-2.272500483E0,2.236529459E1
1.629303696E1,-5.210556194E0,-1.762208710E1,-2.401125779E0,1.853249187E1
1.630306896E1,-6.198649101E0,-1.481102648E1,-2.485984080E0,1.624714969E1
1.631310096E1,-6.379204688E0,-1.263451155E1,-1.330988250E0,1.421607064E1
1.632313296E1,-7.473492971E0,-1.027385494E1,7.619647050E-1,1.272736354E1
1.633316496E1,-8.407613153E0,-8.071057945E0,8.534835702E-1,1.168581916E1
1.634319696E1,-8.348330573E0,-6.613506128E0,5.540932649E-1,1.066490066E1
1.635322896E1,-7.119890206E0,-5.386167961E0,5.717442548E-1,8.945978613E0
1.636326096E1,-6.212036301E0,-3.949952048E0,9.042157674E-1,7.416813490E0
1.637329196E1,-5.229995847E0,-2.230313991E0,1.960310622E0,6.014147886E0
1.638332396E1,-3.678467579E0,-1.972973353E-1,3.043412597E0,4.778327135E0
1.639335596E1,-2.302627531E0,1.878232672E0,4.305541112E0,5.231399027E0
1.640338796E1,-1.073663911E0,4.162878991E0,5.878632742E0,7.282900425E0
1.641341996E1,2.377822505E-1,6.167211546E0,6.048646384E0,8.641594860E0
1.642345196E1,8.507516780E-1,7.227209417E0,3.816902164E0,8.217364329E0
1.643348396E1,6.944018823E-1,7.893603137E0,2.131113639E0,8.205657182E0
1.644351596E1,6.017996742E-1,8.663203136E0,1.054161181E0,8.747828714E0
1.645354796E1,7.780308802E-1,9.470761505E0,4.336856461E-1,9.512556900E0
1.646357996E1,9.421429277E-1,1.019882113E1,1.651943672E-1,1.024357725E1
1.647361196E1,1.046666512E0,1.057441352E1,-4.015166044E-2,1.062616319E1
1.648364396E1,1.187341677E0,1.057511752E1,-1.503144459E-1,1.064262587E1
1.649367596E1,1.181299895E0,1.102829779E1,-2.966106120E-1,1.109535035E1
1.650370796E1,1.972259408E0,1.217655645E1,-3.447344102E0,1.280790832E1
1.651373896E1,3.563438814E0,1.165048129E1,-4.429366429E0,1.296345238E1
1.652377096E1,4.340994535E0,1.123125464E1,-2.528234891E0,1.230354770E1
1.653380296E1,5.044608121E0,1.116289601E1,-1.582175279E0,1.235158278E1
1.654383496E1,5.361195672E0,1.123206624E1,-1.368396397E0,1.252095203E1
1.655386696E1,5.239879981E0,1.122079982E1,-1.041432962E0,1.242768174E1
1.656389896E1,4.735433085E0,1.116880170E1,-6.834575757E-1,1.215045564E1
1.657393096E1,4.582620197E0,1.135799187E1,-6.971881536E-1,1.226745526E1
1.658396296E1,4.733394746E0,1.160845618E1,-8.975909451E-1,1.256849038E1
1.659399496E1,4.729313389E0,1.175277248E1,-1.185376793E0,1.272396103E1
1.660402696E1,4.558995692E0,1.188446114E1,-1.256470603E0,1.279076138E1
1.661405896E1,4.674941885E0,1.214653568E1,-1.524529773E0,1.310410629E1
1.662409096E1,5.193437886E0,1.263672648E1,-2.379605101E0,1.386799097E1
1.663412296E1,5.498088346E0,1.293957951E1,-2.974601394E0,1.437045395E1
1.664415496E1,5.398441851E0,1.289400865E1,-2.911836796E0,1.427856530E1
1.665418696E1,5.242397207E0,1.240990948E1,-2.580998996E0,1.371678306E1
1.666421796E1,5.025816339E0,1.158841895E1,-2.272986533E0,1.283420240E1
1.667424996E1,4.426125610E0,1.089414629E1,-2.020858833E0,1.193134031E1
1.668428196E1,3.540984921E0,1.038934797E1,-1.738847476E0,1.111308760E1
1.669431396E1,2.963374740E0,1.012573912E1,-1.353822797E0,1.063696473E1
1.670434596E1,2.912786969E0,9.923758750E0,-1.117032782E0,1.040255151E1
1.671437796E1,3.662103854E0,9.604245837E0,-1.449569199E0,1.038045248E1
1.672440996E1,5.271895241E0,8.995239615E0,-2.039639943E0,1.062390447E1
1.673444196E1,6.692672750E0,7.013503041E0,-4.839943294E0,1.083541160E1
1.674447396E1,5.089475561E0,5.390665054E0,-3.470041239E0,8.185549304E0
1.675450596E1,2.413553743E0,6.619481397E0,1.262978700E0,7.158064741E0
