"Time (s)","Linear Acceleration x (m/s^2)","Linear Acceleration y (m/s^2)","Linear Acceleration z (m/s^2)","Absolute acceleration (m/s^2)"
1.268750057E-4,-6.972015291E-2,4.392045406E-1,-5.844140017E-1,7.343713322E-1
1.015887491E-2,-5.508223325E-2,3.161262059E-1,-1.344555545E-1,3.479197129E-1
2.018987492E-2,3.474854082E-2,9.900885612E-2,1.574684411E-1,1.892261204E-1
3.022187494E-2,1.621967921E-1,-1.628522649E-1,3.523614013E-1,4.206984867E-1
4.025287495E-2,1.558522707E-1,-1.892129749E-1,6.064287686E-1,6.541003987E-1
5.028487497E-2,6.581655174E-2,-4.066066056E-2,8.426966268E-1,8.462403397E-1
6.031687499E-2,5.625313818E-2,-2.891769737E-2,8.994052631E-1,9.016265724E-1
7.034787501E-2,6.950175941E-2,-2.906943262E-2,6.789102691E-1,6.830773602E-1
8.037975000E-2,3.571128488E-2,2.638439119E-2,3.763384938E-1,3.789486692E-1
9.041075001E-2,-5.746351182E-3,7.739900887E-2,1.792902499E-1,1.953679115E-1
1.004427499E-1,1.631460875E-2,8.455190778E-2,8.138096273E-2,1.184822884E-1
1.104737499E-1,7.711337239E-2,5.573536724E-2,-1.939521432E-3,9.516651252E-2
1.205057499E-1,8.231037766E-2,1.077671081E-2,-1.182827407E-1,1.445058563E-1
1.305377500E-1,5.417328358E-2,-2.085467935E-2,-1.914536279E-1,2.000603758E-1
1.405687500E-1,6.345018357E-2,-7.499346435E-3,-1.941702443E-1,2.044119609E-1
1.506007500E-1,1.192077702E-1,-9.314614534E-3,-2.543316615E-1,2.810370946E-1
1.606317500E-1,1.265872487E-1,-1.334626973E-2,-2.605589461E-1,2.899886530E-1
1.706637499E-1,1.755243507E-1,-1.802404225E-3,-2.821983218E-1,3.323370867E-1
1.806947499E-1,1.968421295E-1,-6.544203758E-3,-3.387525916E-1,3.918455932E-1
1.907267499E-1,1.683091789E-1,-2.502286702E-2,-3.547991055E-1,3.934927304E-1
2.007587500E-1,1.218483728E-1,-6.419365704E-3,-3.035850978E-1,3.271882422E-1
2.107897500E-1,5.377479583E-2,-2.585638762E-3,-3.162606919E-1,3.208102857E-1
2.208217500E-1,-1.270307600E-2,-2.625984550E-2,-3.796667290E-1,3.807857307E-1
2.308527500E-1,3.004153222E-2,-1.584303081E-3,-4.079386014E-1,4.090463374E-1
2.408847499E-1,6.180302292E-2,1.801351726E-2,-4.511512792E-1,4.557209422E-1
2.509157499E-1,7.476132989E-2,3.391268134E-2,-5.287303823E-1,5.350655507E-1
2.609477499E-1,3.531250477E-2,6.536894739E-3,-5.865751326E-1,5.876734554E-1
2.709797500E-1,-4.252767652E-2,3.397817016E-3,-6.349725366E-1,6.364041724E-1
2.810107500E-1,-1.989145289E-1,2.345347434E-2,-7.503386861E-1,7.766113566E-1
2.910427500E-1,-3.802013107E-1,1.449480906E-1,-6.993375170E-1,8.090957597E-1
3.010737500E-1,-6.859147950E-1,2.546044341E-1,-6.106744319E-1,9.530088067E-1
3.111057499E-1,-1.086272481E0,3.044370371E-1,-6.249626881E-1,1.289669793E0
3.211367499E-1,-1.362917995E0,3.276890749E-1,-5.786550790E-1,1.516498365E0
3.311687500E-1,-9.450253858E-1,3.572458729E-1,-6.239867878E-1,1.187458254E0
3.412007500E-1,-5.185304993E-1,3.560077250E-1,-6.088156021E-1,8.753695313E-1
3.512317500E-1,-7.994421414E-1,8.971309885E-1,1.828623140E-1,1.215479483E0
3.612637500E-1,-9.111833096E-1,1.112089546E0,1.322843079E0,1.953691888E0
3.712947500E-1,-6.139880490E-1,1.629865755E0,2.483269218E0,3.033161669E0
3.813267499E-1,-1.588720652E-1,2.003797973E0,3.031583095E0,3.637436283E0
3.913577499E-1,9.829628518E-1,1.534268895E0,2.064749495E0,2.753795107E0
4.013897500E-1,9.686462367E-1,2.765692073E-1,1.056055679E0,1.459458686E0
4.114217500E-1,4.931988993E-1,-1.375812713E0,-1.019179628E0,1.781806076E0
4.214527500E-1,3.364601907E-1,-2.867740604E0,-3.017522880E0,4.176432206E0
4.314847500E-1,-1.119612282E0,-3.292759507E0,-3.492388127E0,4.928749503E0
4.415157500E-1,-1.668081402E0,-3.003014477E0,-4.029652521E0,5.295157311E0
4.515477499E-1,-9.029152004E-1,-2.311481677E0,-4.709618213E0,5.323411229E0
4.615787499E-1,-6.160829602E-1,-1.313132023E0,-5.128029177E0,5.329217313E0
4.716107500E-1,-7.888475713E-1,-1.867540745E-1,-5.196111817E0,5.258967160E0
4.816427500E-1,-1.026526655E0,1.050622884E0,-2.976559042E0,3.319257319E0
4.916737500E-1,-1.347399777E0,1.026061874E0,-1.641942009E0,2.358868943E0
5.017057500E-1,-5.505689653E-1,1.083978619E0,-6.666878343E-1,1.386581588E0
5.117367500E-1,1.502965936E-1,6.346061354E-1,-1.817840874E-2,6.524143374E-1
5.217687499E-1,1.145856193E0,-1.909410829E-1,-2.308118797E0,2.583961550E0
5.317997499E-1,1.233593372E0,-1.122077029E0,-3.642289687E0,4.005881130E0
5.418317500E-1,9.002320594E-1,-1.895569081E0,-7.384632250E0,7.677004192E0
5.518627500E-1,-4.183605324E-1,-9.442367426E-1,-2.275172660E0,2.498603449E0
5.618947500E-1,1.594421688E-1,-4.854940233E-1,-1.017137781E0,1.138286219E0
5.719267500E-1,2.715830234E0,-1.265036482E0,-3.375398206E0,4.513243203E0
5.819577499E-1,3.473855377E0,-1.746137638E0,-5.172988418E0,6.471203676E0
5.919897499E-1,8.481142183E-1,-1.183877129E0,-4.712844706E0,4.932724197E0
6.020207499E-1,-3.432325821E0,4.869185512E-1,-1.296766251E-1,3.469116061E0
6.120527500E-1,-3.842907656E0,1.681194368E0,7.375764363E0,8.485060618E0
6.220847500E-1,8.465220214E-1,-8.725723904E-1,1.102844748E1,1.109525285E1
6.321157500E-1,4.582648264E0,-4.307765393E0,1.019504851E1,1.197900337E1
6.421477500E-1,4.179341534E0,-4.261692842E0,9.451741682E0,1.117874512E1
6.521787499E-1,3.607302287E0,-3.102861823E0,7.954168596E0,9.268720480E0
6.622107499E-1,4.206418820E0,-2.004292648E0,7.384373803E0,8.731559126E0
6.722417499E-1,4.490951643E0,-1.888720676E0,7.268059820E0,8.749891771E0
6.822737500E-1,4.651471746E0,-2.666626791E0,6.988467017E0,8.808277874E0
6.923057500E-1,5.091685224E0,-3.075697414E0,6.319739674E0,8.678956305E0
7.023367500E-1,4.926065179E0,-3.276794270E0,4.983921039E0,7.735823664E0
7.123687500E-1,4.504737039E0,-3.134755461E0,3.302365898E0,6.405073623E0
7.223997499E-1,4.385302396E0,-2.963805095E0,2.761415420E0,5.969960877E0
7.324317499E-1,4.516325051E0,-3.322803963E0,3.212588333E0,6.462115903E0
7.424627499E-1,4.684288074E0,-3.894743807E0,4.002112135E0,7.288928977E0
7.524947500E-1,4.379727076E0,-4.238004310E0,4.342179766E0,7.483128685E0
7.625267500E-1,3.750884761E0,-4.406920722E0,3.390588688E0,6.707173651E0
7.725577500E-1,3.176808636E0,-4.215673209E0,1.787357585E0,5.573029773E0
7.825897500E-1,2.551974587E0,-4.113536677E0,-4.224759489E-2,4.841027075E0
7.926207499E-1,1.611388553E0,-3.908415475E0,-1.539320159E0,4.499087812E0
8.026527499E-1,-1.654469669E-2,-3.317357866E0,-2.291972588E0,4.032155166E0
8.126837499E-1,-1.924001752E0,-2.706325877E0,-2.337554996E0,4.060806060E0
8.227157500E-1,-3.716507226E0,-2.471957195E0,-2.346697556E0,5.042815459E0
8.327477500E-1,-4.900365497E0,-2.237217506E0,-2.396699436E0,5.896006476E0
8.427787500E-1,-5.408057597E0,-1.760357189E0,-2.404975001E0,6.174937179E0
8.528107500E-1,-5.888584118E0,-1.282293954E0,-2.550872387E0,6.544207411E0
8.628417499E-1,-5.810462978E0,-5.453533586E-1,-2.520746362E0,6.357126122E0
8.728737499E-1,-5.313910409E0,7.427500235E-1,-2.221869442E0,5.807411235E0
8.829047499E-1,-4.997855539E0,2.278371380E0,-1.753144941E0,5.765678912E0
8.929367500E-1,-5.315212584E0,3.335722801E0,-1.329313023E0,6.414483964E0
9.029687500E-1,-5.827685952E0,3.393598834E0,-1.019439830E0,6.820388125E0
9.129997500E-1,-6.445913233E0,3.192935257E0,-8.148738205E-1,7.239382039E0
9.230317500E-1,-7.020235525E0,3.226595339E0,-6.840183967E-1,7.756449282E0
9.330627499E-1,-7.378279250E0,3.529159513E0,-1.171372712E0,8.262329308E0
9.430947499E-1,-7.608011091E0,3.751676474E0,-1.926687963E0,8.698795068E0
9.531257499E-1,-7.758792656E0,3.911493449E0,-2.209198526E0,8.965444920E0
9.631577500E-1,-7.239124289E0,4.106784020E0,-1.855062056E0,8.527124409E0
9.731897500E-1,-5.742981432E0,4.359182592E0,-7.615285027E-1,7.250119603E0
9.832207500E-1,-4.079995878E0,4.676181787E0,9.197323774E-1,6.273671183E0
9.932527500E-1,-2.686734781E0,4.909067908E0,2.390986122E0,6.085581825E0
1.003283750E0,-1.636247991E0,4.815652206E0,3.447949873E0,6.144605112E0
1.013315750E0,-1.191197696E0,4.634641120E0,3.823360999E0,6.125107313E0
1.023346750E0,-1.025923222E0,4.649916094E0,3.743523116E0,6.057078790E0
1.033378750E0,-1.011988723E0,5.344148115E0,3.254020534E0,6.338192951E0
1.043410750E0,-9.413292146E-1,6.440206350E0,2.131268005E0,6.848697820E0
1.053441750E0,-5.597983932E-1,7.631780022E0,1.374488026E0,7.774744876E0
1.063473750E0,-2.157955867E-1,8.151572936E0,1.913301347E0,8.375883900E0
1.073504833E0,1.192872924E-1,7.956481170E0,3.298823655E0,8.614061735E0
1.083536833E0,3.856151015E-1,7.459869543E0,4.613185932E0,8.779512347E0
1.093567833E0,3.288672888E-1,7.094711511E0,4.720942515E0,8.528211028E0
1.103599833E0,1.838645267E-1,7.372982842E0,3.389720376E0,8.116950560E0
1.113631833E0,3.289818943E-1,8.041005011E0,1.038159690E0,8.114417183E0
1.123662833E0,4.030006278E-1,8.654505402E0,-2.016637436E0,8.895487610E0
1.133694833E0,4.704570311E-1,8.577450795E0,-4.623068896E0,9.755345097E0
1.143725833E0,1.277039500E0,7.119762737E0,-6.121173493E0,9.475791062E0
1.153757833E0,2.373954937E0,4.818522604E0,-6.459320898E0,8.400990929E0
1.163788833E0,3.868751764E0,2.562161606E0,-6.258297132E0,7.790904653E0
1.173820833E0,6.176769404E0,8.945421338E-1,-6.741283577E0,9.186816106E0
1.183852833E0,9.831021910E0,6.279634792E-1,-7.152436978E0,1.217377035E1
1.193883833E0,1.408382114E1,1.202602106E0,-7.023452078E0,1.578382554E1
1.203915833E0,1.943675528E1,4.917373878E-1,-6.075627776E0,2.037013781E1
1.213946833E0,2.507052417E1,-1.085000858E0,-3.154757324E0,2.529151840E1
1.223978833E0,2.935756469E1,-3.282027820E0,2.167469287E0,2.961986216E1
1.234009833E0,3.182384073E1,-5.966347409E0,9.392681295E0,3.371315177E1
1.244041833E0,3.173913797E1,-8.880561683E0,1.597460603E1,3.662547327E1
1.254073833E0,2.964527109E1,-1.183483699E1,2.005026619E1,3.769507447E1
1.264104833E0,2.613895314E1,-1.357978062E1,2.149047049E1,3.646224945E1
1.274136833E0,2.190897209E1,-1.324072164E1,1.962158576E1,3.225409114E1
1.284167833E0,1.780314847E1,-1.161229430E1,1.647155270E1,2.689069584E1
1.294199833E0,1.400392010E1,-9.597587612E0,1.363672666E1,2.177576130E1
1.304230833E0,1.048529260E1,-7.385771288E0,1.126847451E1,1.707247774E1
1.314262833E0,7.811882451E0,-5.373166677E0,8.947264380E0,1.303648601E1
1.324294833E0,5.603627080E0,-3.627417879E0,6.264019802E0,9.154055986E0
1.334325833E0,3.728112195E0,-1.881415019E0,3.594721418E0,5.510042203E0
1.344357833E0,2.174598212E0,-1.071277151E0,1.587224350E0,2.897549526E0
1.354388833E0,6.476826292E-1,-4.888917672E-1,-1.580455613E-1,8.267323313E-1
1.364420833E0,-1.133592097E0,-2.905508501E-1,-2.135549337E0,2.435163610E0
1.374451833E0,-2.952083766E0,-3.535214158E-1,-4.020046130E0,5.000054684E0
1.384483833E0,-4.446640858E0,-3.027428795E-1,-5.931777501E0,7.419585736E0
1.394515833E0,-5.562401871E0,-1.529159452E-1,-7.837149439E0,9.611691276E0
1.404546833E0,-6.274392178E0,1.760197560E-1,-9.296446651E0,1.121708075E1
1.414578833E0,-6.453335103E0,6.057877676E-1,-1.012587595E1,1.202272334E1
1.424609833E0,-5.740351939E0,7.838916175E-1,-1.058749491E1,1.206901715E1
1.434641833E0,-4.729086225E0,6.233741458E-1,-1.089170800E1,1.189042283E1
1.444672833E0,-3.842530218E0,2.022939638E-1,-1.156997215E1,1.219303969E1
1.454704833E0,-3.472645881E0,-3.308565847E-1,-1.224789132E1,1.273497457E1
1.464736833E0,-3.293059762E0,-5.878820949E-1,-1.253600000E1,1.297463464E1
1.474767833E0,-2.943837438E0,-1.129126725E0,-1.231610493E1,1.271328230E1
1.484799833E0,-2.790133727E0,-1.734285186E0,-1.198850181E1,1.243047735E1
1.494830833E0,-2.383795362E0,-1.704667869E0,-1.138794131E1,1.175897870E1
1.504862833E0,-1.549969254E0,-1.298430954E0,-1.055314369E1,1.074509978E1
1.514893833E0,-1.010820303E0,-9.695238306E-1,-9.783237294E0,9.882988723E0
1.524925833E0,-5.885004745E-1,-9.081223653E-1,-9.129081212E0,9.192994225E0
1.534957833E0,-1.277929446E-1,-1.099585056E0,-8.722816084E0,8.792777648E0
1.544988833E0,3.084841874E-1,-1.495503756E0,-8.644401414E0,8.778232725E0
1.555020833E0,5.346783163E-1,-1.908404158E0,-8.821362133E0,9.041256396E0
1.565051833E0,6.159267665E-1,-2.293368757E0,-9.078796327E0,9.384212742E0
1.575083833E0,7.914413231E-1,-2.517560214E0,-9.250416784E0,9.619495802E0
1.585114833E0,8.941721512E-1,-2.473560501E0,-9.083005738E0,9.456164054E0
1.595146833E0,1.000354956E0,-2.634867055E0,-8.667773319E0,9.114468100E0
1.605178833E0,1.115533410E0,-2.839872774E0,-8.035622064E0,8.595377486E0
1.615209833E0,1.544025705E0,-2.867439473E0,-7.297235087E0,7.990986449E0
1.625241833E0,2.170877921E0,-2.895719531E0,-6.773687677E0,7.679892401E0
1.635272833E0,2.481280873E0,-3.019574668E0,-6.531806492E0,7.611772592E0
1.645304833E0,2.369758683E0,-3.071778610E0,-6.026546833E0,7.167345867E0
1.655335833E0,2.343923930E0,-3.282274865E0,-5.370492745E0,6.716360622E0
1.665367833E0,2.281232861E0,-3.677219199E0,-4.649439839E0,6.351634059E0
1.675399833E0,2.263284540E0,-4.263153477E0,-4.032096657E0,6.289255753E0
1.685430833E0,2.238736175E0,-4.915263033E0,-3.443655093E0,6.405506283E0
1.695462833E0,2.466550859E0,-5.416567635E0,-2.356879898E0,6.401403044E0
1.705493833E0,3.145980946E0,-5.739935617E0,-9.586814117E-1,6.615370515E0
1.715525833E0,4.179094197E0,-5.446408315E0,6.147446787E-1,6.892467110E0
1.725556833E0,4.875034482E0,-3.676933855E0,2.486985124E0,6.593246452E0
1.735588833E0,4.568749432E0,-9.025640751E-1,4.238216271E0,6.296869893E0
1.745620833E0,3.719444867E0,8.726447497E-1,5.031606252E0,6.317660995E0
1.755651833E0,2.712453759E0,9.819328648E-1,5.788224848E0,6.467236229E0
1.765683833E0,1.225105627E0,2.197580986E-1,7.498733647E0,7.601327761E0
1.775714833E0,-1.413527839E-1,-3.141638803E-1,1.013483856E1,1.014069190E1
1.785746833E0,-1.203682671E0,-1.855597807E-1,1.172403225E1,1.178712079E1
1.795777833E0,-1.529293938E0,-3.414599986E-1,1.197378320E1,1.207587757E1
1.805809833E0,-1.626928114E0,-2.244431801E-1,1.207732804E1,1.218848318E1
1.815841833E0,-1.190633586E0,2.988575508E-1,1.212858005E1,1.219054462E1
1.825872833E0,-6.742998127E-1,9.090840130E-1,1.221044341E1,1.226279096E1
1.835904833E0,-9.862082027E-2,1.451307869E0,1.216316984E1,1.224984576E1
1.845935833E0,8.012419143E-1,1.462801887E0,1.171143969E1,1.182960682E1
1.855967833E0,1.450797699E0,9.697146691E-1,1.090614711E1,1.104487236E1
1.865998833E0,1.602637757E0,1.261363919E-1,9.825930154E0,9.956568765E0
1.876030833E0,1.282832483E0,-5.668227265E-1,8.810832467E0,8.921755205E0
1.886061833E0,9.442675866E-1,-7.058825248E-1,8.211648983E0,8.295847783E0
1.896093833E0,7.751751731E-1,-2.755164161E-1,8.089236939E0,8.130963049E0
1.906125833E0,7.153531869E-1,2.586958405E-1,7.826302269E0,7.863183892E0
1.916156833E0,6.570324732E-1,5.933484376E-1,6.959561892E0,7.015643646E0
1.926188833E0,6.272967504E-1,6.883628780E-1,5.310925405E0,5.391963772E0
1.936219833E0,3.896239525E-1,8.843861780E-1,3.382661033E0,3.518002473E0
1.946251833E0,1.015171655E-1,8.938707273E-1,1.216144257E0,1.512718568E0
1.956282833E0,-5.455845429E-1,9.168653414E-1,-8.970166755E-1,1.393895069E0
1.966314833E0,-1.265715490E0,1.178514062E0,-2.943191321E0,3.413693930E0
1.976346833E0,-1.736079550E0,1.393394560E0,-4.858204148E0,5.343937514E0
1.986377833E0,-1.952707780E0,1.545381967E0,-6.399418513E0,6.866864670E0
1.996409833E0,-1.903461507E0,1.621803029E0,-7.645819187E0,8.044374545E0
2.006440833E0,-1.692135093E0,1.422378331E0,-8.605596367E0,8.884974402E0
2.016472833E0,-1.421140037E0,1.044191093E0,-9.212474202E0,9.379747063E0
2.026503833E0,-1.008442679E0,6.541563009E-1,-9.440055436E0,9.516276780E0
2.036535833E0,-6.508253615E-1,3.083321964E-1,-9.381516037E0,9.409117150E0
2.046567833E0,-3.092700532E-1,1.664210399E-1,-9.146138125E0,9.152878593E0
2.056598833E0,-1.012948251E-1,1.280544613E-1,-8.778702602E0,8.780220838E0
2.066630833E0,-1.613949195E-1,1.473783396E-2,-8.341353090E0,8.342927358E0
2.076662375E0,-3.549777380E-1,-1.953339133E-1,-7.922534575E0,7.932888416E0
2.086694375E0,-6.336880495E-1,-5.979659472E-1,-7.759760370E0,7.808521295E0
2.096725375E0,-8.807981803E-1,-1.049904846E0,-7.764109529E0,7.884129781E0
2.106757375E0,-1.069615445E0,-1.388555258E0,-7.854616241E0,8.047804620E0
2.116789375E0,-1.098166303E0,-1.632162249E0,-8.095826166E0,8.331405893E0
2.126820375E0,-9.113074898E-1,-1.783098911E0,-8.618212320E0,8.847796712E0
2.136852375E0,-6.020994171E-1,-1.965303121E0,-9.055554814E0,9.285903998E0
2.146883375E0,-3.589993798E-1,-2.094155289E0,-8.974978428E0,9.223047475E0
2.156915375E0,-1.891919249E-1,-2.156660270E0,-8.516266115E0,8.787136373E0
2.166946375E0,-9.603839748E-2,-2.321163350E0,-7.905794581E0,8.240061325E0
2.176978375E0,-1.860642493E-2,-2.520207834E0,-7.309796661E0,7.732070935E0
2.187010375E0,1.406340880E-1,-2.696631778E0,-6.882337130E0,7.393116073E0
2.197041375E0,2.971093795E-1,-2.852229695E0,-6.347960091E0,6.965636047E0
2.207073375E0,4.574686110E-1,-2.971647965E0,-5.789535794E0,6.523702466E0
2.217104375E0,5.955385488E-1,-3.053322166E0,-5.312415860E0,6.156232995E0
2.227136375E0,8.603066862E-1,-3.046202888E0,-4.821908142E0,5.768039334E0
2.237167375E0,8.478475852E-1,-2.815546311E0,-3.975044205E0,4.944403198E0
2.247199375E0,5.774202932E-1,-2.354429914E0,-2.564920907E0,3.529245483E0
2.257231375E0,2.484940754E-1,-1.668310028E0,-1.138141816E0,2.034791009E0
2.267262375E0,-5.521856839E-1,-7.500292222E-1,6.274910241E-1,1.123030654E0
2.277294375E0,-5.518419042E-1,5.489844064E-1,2.178416444E0,2.313311818E0
2.287325375E0,7.773270947E-1,2.186423621E0,2.732604434E0,3.584942490E0
2.297357375E0,1.696578392E0,3.716917700E0,3.275459350E0,5.236648679E0
2.307388375E0,2.445723369E0,4.564492951E0,4.976092202E0,7.181758302E0
2.317420375E0,2.878722260E0,4.175194396E0,8.602353501E0,9.985978963E0
2.327452375E0,1.876611531E0,3.127512515E0,1.295722406E1,1.346078233E1
2.337483375E0,1.920367781E-1,2.326032765E0,1.550685450E1,1.568151278E1
2.347515375E0,-1.193835521E0,1.805326225E0,1.554693950E1,1.569687147E1
2.357546375E0,-1.692678884E0,1.707315927E0,1.478325806E1,1.497747670E1
2.367578375E0,-1.726284294E0,2.201207137E0,1.425475513E1,1.452664497E1
2.377609375E0,-1.544325960E0,3.042160708E0,1.341666669E1,1.384364943E1
2.387641375E0,-1.536941511E0,3.711576269E0,1.249328025E1,1.312326327E1
2.397673375E0,-1.541359375E0,3.816271250E0,1.161870752E1,1.232615429E1
2.407704375E0,-9.875133743E-1,3.290120367E0,1.107429082E1,1.159482608E1
2.417736375E0,-2.911389521E-1,2.406419848E0,1.116689785E1,1.142695173E1
2.427767375E0,1.679328010E-1,1.393472182E0,1.119296707E1,1.128062401E1
2.437799375E0,2.019008116E-1,4.465044969E-1,1.098674981E1,1.099767255E1
2.447830375E0,-2.449264516E-1,-2.652242933E-1,1.025581394E1,1.026216607E1
2.457862375E0,-8.043027855E-1,-7.054513657E-1,8.953037336E0,9.016731234E0
2.467893375E0,-9.701759414E-1,-8.862708818E-1,6.921359108E0,7.044993211E0
2.477925375E0,-7.054276114E-1,-6.215449905E-1,4.453951632E0,4.552101869E0
2.487957375E0,-1.813275661E-1,1.940040372E-1,2.312748622E0,2.327944038E0
2.497988375E0,3.324074125E-1,1.002727464E0,4.072106230E-1,1.132156149E0
2.508020375E0,4.268931549E-1,1.322019499E0,-1.392988617E0,1.967330833E0
2.518051375E0,2.857315019E-2,1.233363723E0,-2.906948524E0,3.157903136E0
2.528083375E0,-7.103160299E-1,9.440529938E-1,-4.032270904E0,4.201784569E0
2.538114375E0,-1.432195660E0,6.183676136E-1,-4.887109859E0,5.130049287E0
2.548146375E0,-1.960017677E0,3.683759017E-1,-5.797397375E0,6.130838966E0
2.558178375E0,-2.327084387E0,1.701789723E-1,-6.793266494E0,7.182809498E0
2.568209375E0,-2.370346620E0,1.398795779E-1,-7.853236883E0,8.204354877E0
2.578241375E0,-2.195077500E0,2.651596816E-1,-8.745077603E0,9.020258155E0
2.588272375E0,-1.930660708E0,3.782907329E-1,-9.317622927E0,9.523058944E0
2.598304375E0,-1.514477386E0,3.682314755E-1,-9.659709601E0,9.784642341E0
2.608335375E0,-1.051906933E0,2.545975636E-1,-9.893728620E0,9.952748069E0
2.618367375E0,-7.791610739E-1,6.520215556E-2,-1.008359473E1,1.011386306E1
2.628399375E0,-7.943674160E-1,-2.613348716E-1,-1.007251659E1,1.010717102E1
2.638430375E0,-9.916955953E-1,-7.050898616E-1,-9.870623932E0,9.945342059E0
2.648462375E0,-1.252428862E0,-1.178933892E0,-9.580980350E0,9.734148532E0
2.658493375E0,-1.509459890E0,-1.538009944E0,-9.121766930E0,9.372863793E0
2.668525375E0,-1.623528250E0,-1.833516967E0,-8.635102587E0,8.975668506E0
2.678556375E0,-1.512544589E0,-2.081376345E0,-8.369378210E0,8.755935715E0
2.688588375E0,-1.230889766E0,-2.221866811E0,-8.246439916E0,8.628763123E0
2.698620375E0,-8.924390365E-1,-2.279609235E0,-8.224463741E0,8.581076245E0
2.708651375E0,-4.799670158E-1,-2.408069055E0,-8.243411059E0,8.601336570E0
2.718683375E0,-9.698418461E-2,-2.634055754E0,-7.982891289E0,8.406795405E0
2.728714375E0,2.361565418E-1,-2.876478391E0,-7.266692156E0,7.818869019E0
2.738746375E0,4.763902009E-1,-3.090584425E0,-6.455069388E0,7.172627169E0
2.748777375E0,4.160827495E-1,-3.268330133E0,-5.743176729E0,6.621116647E0
2.758809375E0,1.635690605E-1,-3.549853978E0,-5.245388643E0,6.335796723E0
2.768841375E0,5.245127857E-2,-3.890634969E0,-4.879174603E0,6.240683969E0
2.778872375E0,3.012785174E-1,-4.023137846E0,-4.312692257E0,5.905566982E0
2.788904375E0,8.458877447E-1,-3.732589115E0,-3.284333670E0,5.043272274E0
2.798935375E0,1.506039123E0,-3.124492721E0,-1.982858071E0,3.995289067E0
2.808967375E0,2.135525217E0,-2.549914028E0,-9.828888845E-1,3.468227222E0
2.818998375E0,2.244011240E0,-1.971198138E0,4.563371748E-1,3.021498331E0
2.829030375E0,2.083570221E0,-1.468466523E0,2.522288273E0,3.586028015E0
2.839062375E0,1.767926410E0,-1.047267898E0,4.426901243E0,4.880552065E0
2.849093375E0,1.231126870E0,-3.994235936E-1,6.054819290E0,6.191611197E0
2.859125375E0,8.475865071E-1,5.770564502E-1,7.185688924E0,7.258479341E0
2.869156375E0,9.909616967E-1,1.403566815E0,7.491176121E0,7.685683090E0
2.879188375E0,1.144278688E0,1.972071420E0,8.372923962E0,8.677804738E0
2.889219375E0,5.730890048E-1,2.557835836E0,1.066527106E1,1.098266644E1
2.899251375E0,-4.534070985E-1,3.043989717E0,1.347381621E1,1.382082395E1
2.909282375E0,-1.033501506E0,3.414813994E0,1.444422246E1,1.487832795E1
2.919314375E0,-1.042702831E0,3.904902760E0,1.356116075E1,1.415063870E1
2.929346375E0,-7.929545094E-1,4.705879503E0,1.301241827E1,1.385991010E1
2.939377375E0,-7.627394611E-1,5.164324014E0,1.341690877E1,1.439671681E1
2.949409375E0,-1.125702449E0,5.239809229E0,1.441110266E1,1.537539224E1
2.959440375E0,-1.350618669E0,4.943785751E0,1.477047955E1,1.563432936E1
2.969472375E0,-1.156661556E0,3.993150693E0,1.423500207E1,1.482964606E1
2.979503375E0,-7.688170570E-1,2.516630507E0,1.320046707E1,1.346019463E1
2.989535375E0,-6.055671083E-1,9.447219153E-1,1.181015823E1,1.186334895E1
2.999567375E0,-5.280609492E-1,-1.137355073E-1,1.015830811E1,1.017265982E1
3.009598375E0,-4.023991685E-1,-4.296799379E-1,8.018361669E0,8.039942400E0
3.019630375E0,-1.621003130E-1,-2.134702221E-1,5.457510424E0,5.464088769E0
3.029661375E0,6.592560232E-2,4.421558496E-1,2.751404986E0,2.787485853E0
3.039693375E0,2.483739334E-1,1.278345768E0,2.122001338E-1,1.319426546E0
3.049724375E0,3.229826510E-1,1.828336334E0,-2.087157780E0,2.793449327E0
3.059756375E0,1.896966858E-1,1.833055622E0,-3.892689096E0,4.306867323E0
3.069788375E0,-1.720812178E-1,1.478197313E0,-5.024243438E0,5.240009673E0
3.079819083E0,-7.090535429E-1,1.093673010E0,-5.514917802E0,5.666850620E0
3.089851083E0,-1.482370763E0,8.159806985E-1,-5.602388055E0,5.852349913E0
3.099882083E0,-2.286346689E0,5.350285645E-1,-5.249412696E0,5.750649564E0
3.109914083E0,-2.817107225E0,3.069985196E-1,-4.591257704E0,5.395367319E0
3.119945083E0,-2.976901104E0,2.056895698E-1,-4.283025239E0,5.220014711E0
3.129977083E0,-2.913047755E0,2.192298575E-1,-4.613118689E0,5.460290559E0
3.140009083E0,-2.643221557E0,3.746815391E-1,-5.513419746E0,6.125749239E0
3.150040083E0,-1.989146166E0,6.669130252E-1,-6.699832665E0,7.020629117E0
3.160072083E0,-1.316070395E0,9.505188449E-1,-7.740255228E0,7.908671087E0
3.170103083E0,-8.172536373E-1,1.152248370E0,-8.609091248E0,8.724220993E0
3.180135083E0,-5.736847995E-1,1.253170727E0,-9.176033185E0,9.278962018E0
3.190166083E0,-5.386573465E-1,1.151659043E0,-9.400803663E0,9.486389186E0
3.200198083E0,-6.194470096E-1,9.024594831E-1,-9.282510397E0,9.346825503E0
3.210230083E0,-7.293493746E-1,5.618525932E-1,-8.973187426E0,9.020294975E0
3.220261083E0,-8.263674000E-1,1.302437320E-1,-8.547600174E0,8.588440792E0
3.230293083E0,-9.359038755E-1,-3.716921501E-1,-8.082786875E0,8.145275612E0
3.240324083E0,-9.712976566E-1,-8.444177547E-1,-7.673413367E0,7.780599796E0
3.250356083E0,-9.020063969E-1,-1.266850727E0,-7.429634761E0,7.590652079E0
3.260387083E0,-6.939858529E-1,-1.639060940E0,-7.403183126E0,7.614148510E0
3.270419083E0,-5.155459343E-1,-1.952826040E0,-7.449035822E0,7.717995325E0
3.280451083E0,-4.630490474E-1,-2.215956446E0,-7.527415409E0,7.860461827E0
3.290482083E0,-5.400938612E-1,-2.535494794E0,-7.638136531E0,8.066074937E0
3.300514083E0,-6.655515010E-1,-2.844521603E0,-7.711693334E0,8.246482646E0
3.310545083E0,-7.883892227E-1,-3.090530338E0,-7.623477561E0,8.263797278E0
3.320577083E0,-9.274410541E-1,-3.343842537E0,-7.453662724E0,8.221831780E0
3.330608083E0,-9.404254543E-1,-3.584647250E0,-7.130284216E0,8.035860187E0
3.340640083E0,-8.980359183E-1,-3.807508028E0,-6.685966578E0,7.746336875E0
3.350672083E0,-6.577899800E-1,-3.947217305E0,-6.144591592E0,7.332749685E0
3.360703083E0,-1.302764764E-1,-3.949157996E0,-5.996895602E0,7.181613865E0
3.370735083E0,5.803666321E-1,-3.749001957E0,-5.993198408E0,7.092973161E0
3.380766083E0,1.266387919E0,-3.214077619E0,-5.517002335E0,6.509327774E0
3.390798083E0,1.493246877E0,-2.544122069E0,-4.089908663E0,5.042786552E0
3.400829083E0,1.558741247E0,-2.153090253E0,-1.931242944E0,3.285600587E0
3.410861083E0,1.901608086E0,-1.659987686E0,8.470165497E-1,2.662538162E0
3.420892083E0,2.213401797E0,-7.960836469E-1,4.237505250E0,4.846581004E0
3.430924083E0,2.422452913E0,6.515818450E-1,7.282432861E0,7.702380501E0
3.440956083E0,2.833685251E0,2.577528089E0,7.919205170E0,8.797001403E0
3.450987083E0,2.917963509E0,4.543288316E0,7.459146827E0,9.208411978E0
3.461019083E0,2.618338146E0,5.091352517E0,9.262949706E0,1.088943536E1
3.471050083E0,1.908080807E0,3.254779795E0,1.334918398E1,1.387209706E1
3.481082083E0,4.022266391E-1,6.915974115E-1,1.776532868E1,1.778333480E1
3.491113083E0,-1.122617897E0,-7.980850026E-1,2.154422979E1,2.158821549E1
3.501145083E0,-1.904840573E0,-9.285975603E-1,2.439445272E1,2.448632342E1
3.511177083E0,-2.171852506E0,-4.183024988E-1,2.549839768E1,2.559414395E1
3.521208083E0,-1.964769271E0,2.411000703E-1,2.453516948E1,2.461489364E1
3.531240083E0,-1.420885098E0,1.009926702E0,2.191366156E1,2.198288946E1
3.541271083E0,-1.026805494E0,1.373672194E0,1.879857964E1,1.887664963E1
3.551303083E0,-1.365100906E0,1.258086043E0,1.661219227E1,1.671559789E1
3.561334083E0,-1.977162444E0,1.044502604E0,1.497575892E1,1.514178035E1
3.571366083E0,-2.060190860E0,9.668049484E-1,1.216720208E1,1.237820280E1
3.581398083E0,-1.477712287E0,1.356565141E0,8.382418671E0,8.619097711E0
3.591429083E0,-1.708778608E-1,2.186494226E0,4.961144965E0,5.424289410E0
3.601461083E0,1.549671485E0,3.031358562E0,2.507267361E0,4.228120866E0
3.611492083E0,2.884803657E0,3.664824271E0,8.060994887E-1,4.733162311E0
3.621524083E0,3.231554362E0,3.950340596E0,7.056595266E-2,5.104225110E0
3.631555083E0,2.652878526E0,3.866771897E0,-1.418663156E-1,4.691461971E0
3.641587083E0,1.416718372E0,3.605858610E0,-7.393324721E-1,3.944099360E0
3.651618083E0,7.030706719E-2,3.197922347E0,-1.537781464E0,3.549143876E0
3.661650083E0,-1.040417154E0,2.878457966E0,-2.237265161E0,3.791219265E0
3.671682083E0,-1.644795451E0,2.696111669E0,-3.176492887E0,4.479338931E0
3.681713083E0,-1.702470047E0,2.802043920E0,-4.533332847E0,5.594726186E0
3.691745083E0,-1.450442773E0,2.901085229E0,-6.122573901E0,6.928635574E0
3.701776083E0,-1.007964961E0,2.843317077E0,-7.743289933E0,8.310173545E0
3.711808083E0,-6.863482198E-1,2.660303320E0,-9.394629588E0,9.788123044E0
3.721839083E0,-6.380263911E-1,2.396471833E0,-1.110829004E1,1.138175129E1
3.731871083E0,-6.969559461E-1,2.097949547E0,-1.254350432E1,1.273682223E1
3.741903083E0,-9.437023070E-1,1.731156487E0,-1.355795998E1,1.370057501E1
3.751934083E0,-1.157909936E0,1.292595871E0,-1.408227981E1,1.418880418E1
3.761966083E0,-1.363188428E0,8.951945369E-1,-1.393644090E1,1.403153737E1
3.771997083E0,-1.608922198E0,4.746284348E-1,-1.314525181E1,1.325185073E1
3.782029083E0,-1.722480096E0,-8.661517091E-2,-1.181903781E1,1.194420758E1
3.792060083E0,-1.695070395E0,-6.038813560E-1,-1.032321713E1,1.047887152E1
3.802092083E0,-1.597474227E0,-1.098463414E0,-9.034642832E0,9.240309350E0
3.812124083E0,-1.554838961E0,-1.563966611E0,-8.261100640E0,8.550397625E0
3.822155083E0,-1.464632504E0,-1.901088414E0,-7.745348153E0,8.108619090E0
3.832187083E0,-1.319881318E0,-2.079077513E0,-7.430890743E0,7.828332340E0
3.842218083E0,-1.217523542E0,-2.193461330E0,-7.312739564E0,7.731092815E0
3.852250083E0,-1.165169327E0,-2.331356217E0,-7.434266925E0,7.877890967E0
3.862281083E0,-1.243876724E0,-2.410281056E0,-7.664925549E0,8.130668346E0
3.872313083E0,-1.462529845E0,-2.462361914E0,-7.893165765E0,8.396683008E0
3.882345083E0,-1.654475516E0,-2.591483054E0,-8.099211704E0,8.663157847E0
3.892376083E0,-1.707780780E0,-2.751011761E0,-8.126475517E0,8.747810310E0
3.902408083E0,-1.594836109E0,-2.886873279E0,-8.050526617E0,8.699914848E0
3.912439083E0,-1.234789420E0,-2.887610613E0,-7.975911468E0,8.571940486E0
3.922471083E0,-8.317433301E-1,-2.740897832E0,-7.974438554E0,8.473251333E0
3.932502083E0,-5.566825217E-1,-2.588408588E0,-7.869438348E0,8.302879884E0
3.942534083E0,-1.619586642E-1,-2.557947225E0,-7.400023876E0,7.831326706E0
3.952566083E0,4.129730175E-1,-2.517576587E0,-6.307153543E0,6.803596431E0
3.962597083E0,8.758892235E-1,-2.205168333E0,-4.655150229E0,5.224975882E0
3.972629083E0,1.456252274E0,-1.827780410E0,-2.103311883E0,3.144101269E0
3.982660083E0,2.461073188E0,-1.589262105E0,1.390165581E0,3.242714236E0
3.992692083E0,4.054190654E0,-7.582887067E-1,4.502966502E0,6.106404092E0
4.002723083E0,5.320648155E0,9.281677169E-1,7.154343170E0,8.964118378E0
4.012755083E0,5.904839378E0,2.856551665E0,9.380160652E0,1.144615347E1
4.022786083E0,6.710039565E0,3.672407525E0,1.150226022E1,1.381351506E1
4.032818083E0,6.977078980E0,2.828733829E0,1.522915152E1,1.698847910E1
4.042850083E0,7.477905280E0,1.318870481E0,1.998975687E1,2.138337827E1
4.052881083E0,7.052070690E0,6.761992076E-1,2.296608085E1,2.403393052E1
4.062913083E0,5.288983728E0,1.213868959E0,2.358959285E1,2.420569597E1
4.072944083E0,3.590791797E0,1.662539119E0,2.384965595E1,2.417568843E1
4.082975333E0,2.131203394E0,1.906140555E0,2.336219463E1,2.353651498E1
4.093006333E0,3.072770663E-1,2.575812516E0,2.114815110E1,2.130665446E1
4.103038333E0,-1.677749773E0,3.623969775E0,1.794326647E1,1.838229618E1
4.113070333E0,-2.957846197E0,4.777286285E0,1.485306913E1,1.588033315E1
4.123101333E0,-3.474991491E0,5.582694048E0,1.193931036E1,1.363045012E1
4.133133333E0,-3.090915962E0,5.642764834E0,9.906366792E0,1.181230966E1
4.143164333E0,-2.092143262E0,5.017175909E0,8.570883787E0,1.014934315E1
4.153196333E0,-1.181623612E0,4.257689254E0,6.585140115E0,7.930209485E0
4.163227333E0,-7.927193052E-1,3.519852499E0,3.906197333E0,5.317531676E0
4.173259333E0,-7.711148666E-1,2.732385456E0,1.704996629E0,3.311730955E0
4.183290333E0,-1.206369174E0,2.133421243E0,1.213378524E0,2.734794366E0
4.193322333E0,-1.552559278E0,1.530312377E0,2.277384662E0,3.152582621E0
4.203354333E0,-1.738269771E0,7.575762235E-1,2.648995682E0,3.257711107E0
4.213385333E0,-2.106834245E0,1.596663729E-1,1.934326766E0,2.864587915E0
4.223417333E0,-2.838823784E0,-3.116628069E-2,5.053520447E-1,2.883621422E0
4.233448333E0,-3.560545320E0,-9.521353807E-2,-1.282021328E0,3.785515457E0
4.243480333E0,-4.163846705E0,-2.252617903E-1,-3.356404111E0,5.352925444E0
4.253511333E0,-4.676276219E0,-5.016165510E-1,-5.431825944E0,7.184978186E0
4.263543333E0,-4.988391820E0,-8.469886293E-1,-7.158932649E0,8.766513524E0
4.273575333E0,-4.971988626E0,-1.018109880E0,-8.739991695E0,1.010666480E1
4.283606333E0,-4.606212543E0,-1.232914656E0,-1.030879556E1,1.135819257E1
4.293638333E0,-3.890201398E0,-1.356216501E0,-1.174392682E1,1.244559389E1
4.303669333E0,-3.097653124E0,-1.264057366E0,-1.276987460E1,1.320087092E1
4.313701333E0,-2.518716501E0,-1.079950325E0,-1.303585976E1,1.332080573E1
4.323732333E0,-2.258118086E0,-9.981409080E-1,-1.247471884E1,1.271668168E1
4.333764333E0,-2.209507698E0,-1.182851673E0,-1.133110988E1,1.160496073E1
4.343796333E0,-2.377207012E0,-1.630365984E0,-9.965608442E0,1.037412927E1
4.353827333E0,-2.719100874E0,-2.253089627E0,-8.834980298E0,9.514557231E0
4.363859333E0,-3.043743550E0,-2.954168884E0,-8.055434185E0,9.103928191E0
4.373890333E0,-3.344284587E0,-3.574136295E0,-7.520715669E0,8.973285565E0
4.383922333E0,-3.627629840E0,-4.049670464E0,-7.276771587E0,9.083552931E0
4.393953333E0,-3.816771771E0,-4.438472883E0,-7.397086235E0,9.433168770E0
4.403985333E0,-3.811948695E0,-4.701812764E0,-7.774636272E0,9.853068826E0
4.414017333E0,-3.735443434E0,-4.795496854E0,-8.245961030E0,1.024432531E1
4.424048333E0,-3.575825556E0,-4.895455590E0,-8.907264748E0,1.077457095E1
4.434080333E0,-3.336428560E0,-4.989734926E0,-9.472253714E0,1.121395562E1
4.444111333E0,-3.085336256E0,-4.921213744E0,-9.717209950E0,1.132085747E1
4.454143333E0,-2.674732786E0,-4.778922044E0,-9.482063003E0,1.094996850E1
4.464174333E0,-2.096986072E0,-4.627863905E0,-9.029270411E0,1.036060804E1
4.474206333E0,-1.387389031E0,-4.325828027E0,-8.547461595E0,9.679707442E0
4.484237333E0,-5.563846426E-1,-3.973380087E0,-7.977965595E0,8.930019497E0
4.494269333E0,2.529214592E-1,-3.519209890E0,-6.800234036E0,7.661069799E0
4.504301333E0,1.364533873E0,-3.134178341E0,-4.993415748E0,6.051382271E0
4.514332333E0,2.875425600E0,-2.760655574E0,-2.764681090E0,4.851056906E0
4.524364333E0,3.747831929E0,-1.994828929E0,-1.366669714E-2,4.245677026E0
4.534395333E0,4.265160241E0,-1.192132520E0,2.214910671E0,4.951626108E0
4.544427333E0,4.391242583E0,-2.616517907E-1,3.914358877E0,5.888435998E0
4.554458333E0,3.912707039E0,8.871986157E-1,5.531801637E0,6.833536940E0
4.564490333E0,3.106852256E0,2.176580418E0,6.589308595E0,7.603224383E0
4.574522333E0,2.231382570E0,3.424326537E0,7.455499334E0,8.502326195E0
4.584553333E0,2.113422742E0,4.007833636E0,9.508277825E0,1.053264607E1
4.594585333E0,1.759433329E0,3.675457141E0,1.309415884E1,1.371355485E1
4.604616333E0,5.363706467E-1,3.728560676E0,1.695870645E1,1.737203450E1
4.614648333E0,-7.322830689E-1,3.805251587E0,1.950155412E1,1.988282654E1
4.624679333E0,-1.628474264E0,3.504210613E0,2.115745987E1,2.150742961E1
4.634711333E0,-2.031691238E0,3.641785949E0,2.181323212E1,2.220827480E1
4.644743333E0,-2.179140914E0,4.392183985E0,2.107943228E1,2.164214409E1
4.654774333E0,-2.085664840E0,4.969025257E0,1.909996735E1,1.984565349E1
4.664806333E0,-2.095159841E0,4.919547873E0,1.642372598E1,1.727224424E1
4.674837333E0,-2.316351969E0,4.517012098E0,1.362906680E1,1.454373909E1
4.684869333E0,-2.400079419E0,4.034729658E0,1.075646658E1,1.173631109E1
4.694900333E0,-2.307363775E0,3.540898675E0,7.616070893E0,8.710133573E0
4.704932333E0,-2.191019825E0,3.276767372E0,4.832792149E0,6.236477551E0
4.714963333E0,-1.856382650E0,3.076181855E0,2.988264583E0,4.673197681E0
4.724995333E0,-1.004115301E0,2.965155509E0,1.893675753E0,3.658743307E0
4.735027333E0,-3.437826589E-2,3.056058663E0,1.330516380E0,3.333309205E0
4.745058333E0,5.963138165E-1,2.792153940E0,1.181449218E0,3.089908744E0
4.755090333E0,4.823181081E-1,2.159375571E0,1.065293695E0,2.455684074E0
4.765121333E0,-5.742087100E-1,1.456046745E0,1.175082770E0,1.957193726E0
4.775153333E0,-1.698999724E0,7.465561223E-1,9.188624579E-1,2.070810065E0
4.785184333E0,-2.559084509E0,2.226496929E-1,-1.685565162E-1,2.574276152E0
4.795216333E0,-3.077435499E0,5.378458992E-2,-1.793713508E0,3.562430375E0
4.805248333E0,-3.219854668E0,2.339079219E-1,-3.612446668E0,4.844785643E0
4.815279333E0,-2.875588445E0,5.454124886E-1,-5.391585406E0,6.134792326E0
4.825311333E0,-2.094503345E0,8.593443806E-1,-6.946409165E0,7.306026095E0
4.835342333E0,-1.284922424E0,1.141829070E0,-8.273779743E0,8.450457413E0
4.845374333E0,-2.645487937E-1,1.488145766E0,-9.361760049E0,9.482990831E0
4.855405333E0,3.891564676E-1,1.704947951E0,-1.014417773E1,1.029381523E1
4.865437333E0,6.023164219E-1,1.727157576E0,-1.053512140E1,1.069273778E1
4.875469333E0,4.270873556E-1,1.487740554E0,-1.047052955E1,1.058431691E1
4.885500333E0,-6.024357051E-2,9.988188927E-1,-9.956185069E0,1.000634247E1
4.895532333E0,-5.976389417E-1,3.694623875E-1,-9.292396284E0,9.318921797E0
4.905563333E0,-1.044543388E0,-2.236379820E-1,-8.698522072E0,8.763867359E0
4.915595333E0,-1.442614521E0,-6.631496110E-1,-8.189428394E0,8.341920731E0
4.925626333E0,-1.689335008E0,-1.065470500E0,-7.758356454E0,8.011315436E0
4.935658333E0,-1.776666682E0,-1.404428987E0,-7.489720164E0,7.824632478E0
4.945690333E0,-1.699524220E0,-1.566919017E0,-7.533939732E0,7.880600591E0
4.955721333E0,-1.395120073E0,-1.463342608E0,-7.745393761E0,8.004926991E0
4.965753333E0,-1.061756714E0,-1.166540646E0,-8.014803638E0,8.168550774E0
4.975784333E0,-6.787021083E-1,-1.014087142E0,-8.347914836E0,8.436627963E0
4.985816333E0,-4.485141850E-1,-9.692324200E-1,-8.472071689E0,8.539120281E0
4.995847333E0,-4.436430158E-1,-9.488865946E-1,-8.177751505E0,8.244563334E0
5.005879333E0,-4.346039513E-1,-9.699196140E-1,-7.450581826E0,7.526007853E0
5.015910333E0,-2.395585249E-1,-9.003178672E-1,-6.914975703E0,6.977452939E0
5.025942333E0,3.848637342E-1,-7.057744244E-1,-6.477165431E0,6.526860627E0
5.035974333E0,1.414265465E0,-3.803233347E-1,-5.728414848E0,5.912658397E0
5.046005333E0,2.460204876E0,9.346266244E-2,-4.815087950E0,5.407995494E0
5.056037333E0,3.627832446E0,4.768994933E-1,-3.608085229E0,5.138762536E0
5.066068333E0,4.467582661E0,5.099001552E-1,-1.953639534E0,4.902652387E0
5.076100583E0,4.404291814E0,1.506187934E-1,1.802638113E-1,4.410551830E0
5.086131583E0,4.030432832E0,-3.568844419E-1,2.092004537E0,4.555023414E0
5.096163583E0,3.589494884E0,-7.282256129E-1,3.074850152E0,4.782205509E0
5.106195583E0,3.376197813E0,-2.628360712E-1,3.141968002E0,4.619497526E0
5.116226583E0,3.525402092E0,6.585362309E-1,3.064270200E0,4.717190025E0
5.126258583E0,3.565889675E0,1.289424634E0,3.689659150E0,5.290724875E0
5.136289583E0,3.524639615E0,1.022875654E0,5.848016136E0,6.904248818E0
5.146321583E0,2.954806815E0,-3.334886357E-1,9.269459412E0,9.734730390E0
5.156352583E0,1.248490323E0,-1.139660411E0,1.183158593E1,1.195173542E1
5.166384583E0,-8.395838615E-1,-7.704696263E-1,1.259581702E1,1.264725784E1
5.176416583E0,-2.432239982E0,-4.306192200E-1,1.315932956E1,1.338914407E1
5.186447583E0,-3.517810652E0,-3.158750680E-1,1.404595808E1,1.448322157E1
5.196479583E0,-4.305705127E0,1.678535347E-1,1.383237917E1,1.448799451E1
5.206510583E0,-5.123235630E0,9.392107683E-1,1.201265081E1,1.309325933E1
5.216542583E0,-5.723717195E0,1.432409375E0,9.705148898E0,1.135793336E1
5.226573583E0,-5.460818194E0,1.351372229E0,8.377246808E0,1.009083774E1
5.236605583E0,-4.147741427E0,1.051480963E0,8.166552917E0,9.219650628E0
5.246636583E0,-2.235402677E0,3.932088073E-1,7.977446362E0,8.294051407E0
5.256668583E0,-5.058136824E-1,-3.640942050E-1,6.841090286E0,6.869419799E0
5.266700583E0,5.661148845E-1,-1.005230657E0,4.734659498E0,4.873189438E0
5.276731583E0,7.521812169E-1,-1.389400473E0,2.556864029E0,3.005622052E0
5.286763583E0,1.032678949E-1,-1.563789294E0,1.064163428E0,1.894345538E0
5.296794583E0,-6.687926857E-1,-1.448523425E0,6.035028219E-2,1.596604498E0
5.306826583E0,-1.489031911E0,-1.002744275E0,-2.077889943E-1,1.807176909E0
5.316857583E0,-2.186315740E0,-7.249980229E-1,1.599633311E0,2.804358283E0
5.326889583E0,-2.063843323E0,-6.926336843E-1,4.909851435E0,5.370831574E0
5.336921583E0,-1.736021955E0,-5.214655092E-1,6.946523185E0,7.179128281E0
5.346952583E0,-1.854653190E0,-1.764148816E-1,6.392796541E0,6.658731732E0
5.356984583E0,-2.362983514E0,3.174450454E-1,4.050932878E0,4.700480786E0
5.367015583E0,-2.757056905E0,7.507997391E-1,9.201991314E-1,3.001970930E0
5.377047583E0,-2.770774181E0,1.115327881E0,-2.038645771E0,3.616244242E0
5.387078583E0,-2.847897201E0,1.488893771E0,-4.441294749E0,5.482008954E0
5.397110583E0,-3.140890360E0,1.812305754E0,-6.253393657E0,7.228732713E0
5.407142583E0,-3.129346494E0,2.158856192E0,-7.206761119E0,8.148059608E0
5.417173583E0,-3.022868990E0,2.531072837E0,-7.417091314E0,8.399839891E0
5.427205583E0,-2.640280699E0,2.851564867E0,-6.923077020E0,7.939237985E0
5.437236583E0,-2.086261109E0,3.085326316E0,-6.189941427E0,7.224063868E0
5.447268583E0,-1.631241312E0,3.220465410E0,-5.501434123E0,6.580130932E0
5.457299583E0,-1.346233988E0,3.231061442E0,-4.933736726E0,6.049286080E0
5.467331583E0,-1.192136759E0,3.010253622E0,-4.818163000E0,5.804955781E0
5.477363583E0,-1.277883545E0,2.603213445E0,-5.194226090E0,5.948923539E0
5.487394583E0,-1.620621307E0,2.105146008E0,-5.776167889E0,6.357843079E0
5.497426583E0,-2.099897693E0,1.638404298E0,-6.399540719E0,6.931670822E0
5.507457583E0,-2.463231103E0,1.439361715E0,-6.841649864E0,7.412654213E0
5.517489583E0,-2.490655713E0,1.310383101E0,-7.156025414E0,7.689549368E0
5.527520583E0,-2.181747018E0,1.157892833E0,-7.322014418E0,7.727394839E0
5.537552583E0,-1.786286667E0,1.018567864E0,-7.194771988E0,7.482850026E0
5.547583583E0,-1.294223443E0,7.843857072E-1,-6.772583138E0,6.939607886E0
5.557615583E0,-9.782435641E-1,4.075811172E-1,-6.318164434E0,6.406425264E0
5.567647583E0,-8.967579362E-1,-9.489175849E-2,-5.918491457E0,5.986795501E0
5.577678583E0,-8.945468116E-1,-5.596992099E-1,-5.717692224E0,5.814248152E0
5.587710583E0,-8.107790154E-1,-9.559767821E-1,-5.552892544E0,5.692615377E0
5.597741583E0,-5.326964025E-1,-1.294385850E0,-5.134431294E0,5.321802786E0
5.607773583E0,-2.366941202E-1,-1.685276748E0,-4.298295243E0,4.622934546E0
5.617804583E0,1.129278606E-1,-2.129247208E0,-3.358040746E0,3.977798892E0
5.627836583E0,6.631375511E-1,-2.504814454E0,-2.317439843E0,3.476258662E0
5.637868583E0,1.554569989E0,-2.821592624E0,-1.088804179E0,3.400524567E0
5.647899583E0,2.600158275E0,-2.809219331E0,2.289915830E-1,3.834706436E0
5.657931583E0,3.544842330E0,-2.050613852E0,1.534882999E0,4.373418586E0
5.667962583E0,4.215322960E0,-1.086476330E0,3.253930487E0,5.434835976E0
5.677994583E0,4.217054321E0,-4.741443219E-1,5.326965487E0,6.810647640E0
5.688025583E0,3.949484271E0,-3.020246221E-1,7.325826218E0,8.328107507E0
5.698057583E0,3.753844036E0,-1.160077060E0,9.913018584E0,1.066325754E1
5.708089583E0,3.308505474E0,-2.994969877E0,1.338934967E1,1.411349488E1
5.718120583E0,2.120904985E0,-3.847880713E0,1.661050827E1,1.718177549E1
5.728152583E0,3.536815564E-1,-3.070912052E0,1.858621695E1,1.884152467E1
5.738183583E0,-1.003345588E0,-2.219732431E0,1.961755820E1,1.976821955E1
5.748215583E0,-1.767375310E0,-1.789989270E0,1.968269852E1,1.984278958E1
5.758246583E0,-2.736627903E0,-9.686167082E-1,1.836432447E1,1.859235768E1
5.768278583E0,-3.841642026E0,2.168891257E-1,1.639926942E1,1.684462204E1
5.778310583E0,-4.607287846E0,1.329616640E0,1.449079436E1,1.526362024E1
5.788341583E0,-4.769253380E0,1.980287489E0,1.264372092E1,1.365763504E1
5.798373583E0,-4.704248422E0,2.085948430E0,1.092488393E1,1.207618412E1
5.808404583E0,-4.584873714E0,1.591784593E0,9.543868073E0,1.070701933E1
5.818436583E0,-4.210814757E0,8.332242105E-1,7.941297705E0,9.027149758E0
5.828467583E0,-3.856334032E0,3.695066071E-1,5.701542799E0,6.893144246E0
5.838499583E0,-3.392040259E0,3.506922405E-1,3.717867873E0,5.044944369E0
5.848530583E0,-2.744816051E0,6.046134274E-1,2.553279685E0,3.797210780E0
5.858562583E0,-2.108612237E0,8.621986990E-1,1.930986251E0,2.986358998E0
5.868594583E0,-1.630786107E0,1.137763062E0,1.344353231E0,2.400261178E0
5.878625583E0,-1.467130434E0,1.384887446E0,5.991595101E-1,2.104608531E0
5.888657583E0,-1.324932289E0,1.450569365E0,-3.868541265E-1,2.002311956E0
5.898688583E0,-1.249359950E0,1.368506033E0,-1.446732715E0,2.350902932E0
5.908720583E0,-1.507464674E0,1.440739757E0,-2.335019497E0,3.130574523E0
5.918751583E0,-1.744544857E0,1.530599183E0,-3.261827152E0,4.003209585E0
5.928783583E0,-2.114437965E0,1.734714664E0,-4.320498290E0,5.113393036E0
5.938815583E0,-2.398026900E0,1.978789140E0,-5.419748520E0,6.248184816E0
5.948846583E0,-2.409268757E0,2.128684705E0,-6.576224865E0,7.320014208E0
5.958878583E0,-1.795485945E0,2.329847050E0,-8.017809107E0,8.540329029E0
5.968909583E0,-7.620319480E-1,2.569119208E0,-9.736044416E0,1.009810017E1
5.978941583E0,5.103204238E-1,2.900751060E0,-1.145568364E1,1.182824887E1
5.988972583E0,1.571504842E0,3.188730817E0,-1.311015916E1,1.358358954E1
5.999004583E0,1.995045130E0,3.218128278E0,-1.434266802E1,1.483403791E1
6.009036583E0,1.776396248E0,3.043292145E0,-1.492925952E1,1.533949154E1
6.019067583E0,1.183184526E0,2.720045784E0,-1.477159169E1,1.506646925E1
6.029099583E0,5.913545005E-1,2.065266974E0,-1.405558493E1,1.421880781E1
6.039130583E0,8.279862016E-2,1.257078129E0,-1.305687465E1,1.311751031E1
6.049162583E0,-3.326656401E-1,5.173789633E-1,-1.215938552E1,1.217493342E1
6.059193583E0,-5.632222304E-1,-4.977383852E-2,-1.133625660E1,1.135034847E1
6.069225583E0,-5.742121453E-1,-4.558582878E-1,-1.078224578E1,1.080714349E1
6.079256833E0,-4.276569474E-1,-7.471101460E-1,-1.064865562E1,1.068339508E1
6.089288833E0,9.908874370E-2,-9.044989188E-1,-1.098237609E1,1.102000551E1
6.099320833E0,5.491742948E-1,-8.592793304E-1,-1.125581061E1,1.130191249E1
6.109351833E0,6.160623488E-1,-8.479608750E-1,-1.119372487E1,1.124268860E1
6.119383833E0,4.637125602E-1,-1.098434251E0,-1.056644493E1,1.063350110E1
6.129414833E0,8.392369755E-2,-1.538693191E0,-9.448314044E0,9.573152991E0
6.139446833E0,-5.852865525E-2,-1.799893284E0,-8.429589913E0,8.619804380E0
6.149477833E0,-3.963973671E-3,-1.837878844E0,-7.794247248E0,8.008002530E0
6.159509833E0,1.129942265E-1,-1.774020086E0,-7.639670840E0,7.843754554E0
6.169541833E0,5.494967687E-1,-1.569935741E0,-7.686373721E0,7.864285467E0
6.179572833E0,1.628358927E0,-1.197801688E0,-7.483412772E0,7.751628758E0
6.189604833E0,2.561809019E0,-8.587728153E-1,-6.515623738E0,7.053630901E0
6.199635833E0,3.154745045E0,-7.736100928E-1,-4.691857880E0,5.706524270E0
6.209667833E0,3.373294378E0,-8.923001651E-1,-2.160637400E0,4.104103863E0
6.219698833E0,2.964513193E0,-9.366892297E-1,1.113234431E0,3.302274380E0
6.229730833E0,2.397701064E0,-7.076798858E-1,4.235461648E0,4.918222909E0
6.239762833E0,1.974595370E0,-3.013698070E-1,6.582169145E0,6.878575527E0
6.249793833E0,1.702315388E0,4.527215855E-1,8.606702076E0,8.785109853E0
6.259825833E0,1.891152241E0,6.083062365E-1,1.072345437E1,1.090591431E1
6.269856833E0,2.622571822E0,-9.054957229E-1,1.326826085E1,1.355524074E1
6.279888833E0,3.222299097E0,-2.482096267E0,1.668477843E1,1.717340516E1
6.289919833E0,2.626541497E0,-3.225368885E0,1.960954518E1,2.004584712E1
6.299951833E0,1.243622370E0,-4.104772285E0,2.257097747E1,2.297487271E1
6.309983833E0,8.489398817E-2,-5.501176845E0,2.530276856E1,2.589401959E1
6.320014833E0,-6.740864624E-1,-6.406649764E0,2.648195081E1,2.725423403E1
6.330046833E0,-1.562237297E0,-5.870053707E0,2.525585986E1,2.597607694E1
6.340077833E0,-2.879951929E0,-4.449846886E0,2.228199170E1,2.290376420E1
6.350109833E0,-4.379912141E0,-3.305398849E0,1.945030562E1,2.020949481E1
6.360140833E0,-5.322183049E0,-2.719437966E0,1.736656495E1,1.836623406E1
6.370172833E0,-5.500718424E0,-2.353315435E0,1.572025331E1,1.682029610E1
6.380203833E0,-5.276482966E0,-2.143907054E0,1.401584842E1,1.512883396E1
6.390235833E0,-4.782318399E0,-1.807425083E0,1.127636006E1,1.238118132E1
6.400267833E0,-4.114618996E0,-1.066601278E0,7.603361385E0,8.710845661E0
6.410298833E0,-3.431504287E0,-4.935590878E-2,4.133082749E0,5.372153264E0
6.420330833E0,-2.796129754E0,7.570094821E-1,1.512564762E0,3.267913266E0
6.430361833E0,-2.055011835E0,1.326347608E0,-2.132707590E-1,2.455148882E0
6.440393833E0,-1.491090424E0,1.750230251E0,-1.333904842E0,2.658187109E0
6.450424833E0,-9.863850810E-1,1.837882791E0,-2.225898174E0,3.050473957E0
6.460456833E0,-7.210793652E-1,1.754321255E0,-3.427600978E0,3.917403091E0
6.470488833E0,-7.956594314E-1,1.680953609E0,-4.779435137E0,5.128516276E0
6.480519833E0,-1.113801173E0,1.809855478E0,-6.267376689E0,6.617865250E0
6.490551833E0,-1.567681347E0,2.096344194E0,-7.728156754E0,8.159454063E0
6.500582833E0,-1.831505379E0,2.347584433E0,-9.221267830E0,9.690064242E0
6.510614833E0,-2.013002952E0,2.597977848E0,-1.053835374E1,1.103895690E1
6.520645833E0,-2.144282884E0,2.841585132E0,-1.144672454E1,1.198749589E1
6.530677833E0,-2.139167155E0,2.896389914E0,-1.220117674E1,1.272139240E1
6.540709833E0,-2.072606107E0,2.901262399E0,-1.294690490E1,1.342890040E1
6.550740833E0,-1.797842812E0,2.934902893E0,-1.349890311E1,1.393076734E1
6.560772833E0,-1.295318773E0,2.812629720E0,-1.344488887E1,1.379687549E1
6.570803833E0,-7.297820686E-1,2.561858135E0,-1.267467257E1,1.295156453E1
6.580835833E0,-2.659885244E-1,2.133247873E0,-1.144603223E1,1.164616461E1
6.590866833E0,-1.168548506E-1,1.518754770E0,-1.000269733E1,1.011801487E1
6.600898833E0,-3.324127480E-1,8.212850001E-1,-8.525039277E0,8.570956887E0
6.610930833E0,-7.329057974E-1,5.762259264E-2,-7.243586299E0,7.280797603E0
6.620961833E0,-1.173752090E0,-5.968779631E-1,-6.438984282E0,6.572250441E0
6.630993833E0,-1.528726173E0,-1.001317408E0,-5.969822409E0,6.243269965E0
6.641024833E0,-1.681434689E0,-1.139469280E0,-6.007070342E0,6.341175518E0
6.651056833E0,-1.654432685E0,-1.097039763E0,-6.486698731E0,6.783649768E0
6.661087833E0,-1.647650938E0,-9.846863186E-1,-7.325335636E0,7.572641741E0
6.671119833E0,-1.600465224E0,-8.263476656E-1,-8.225433210E0,8.420337932E0
6.681151833E0,-1.298922997E0,-6.549602931E-1,-8.911774120E0,9.029722693E0
6.691182833E0,-1.273282225E0,-5.825269590E-1,-9.144179308E0,9.250762158E0
6.701214833E0,-1.535281925E0,-6.721129540E-1,-8.991382792E0,9.146244635E0
6.711245833E0,-1.580887869E0,-9.508305746E-1,-8.392730820E0,8.593091170E0
6.721277833E0,-1.207005936E0,-1.107009924E0,-7.597798929E0,7.772315155E0
6.731308833E0,-5.503821833E-1,-1.033331425E0,-6.747730132E0,6.848544102E0
6.741340833E0,2.139316405E-1,-1.006552493E0,-6.066760474E0,6.153413469E0
6.751371833E0,1.036195172E0,-9.482808231E-1,-5.386793028E0,5.566909024E0
6.761403833E0,1.810027678E0,-7.787780812E-1,-4.537785501E0,4.947139856E0
6.771435833E0,2.393093897E0,-4.149156818E-1,-3.153075957E0,3.980068016E0
6.781466833E0,2.752524728E0,-1.458449804E-1,-1.161780939E0,2.991220167E0
6.791498833E0,3.177375231E0,2.262399564E-1,1.335052065E0,3.453876358E0
6.801529833E0,3.700424167E0,1.110093161E0,4.797241663E0,6.159462104E0
6.811561833E0,4.087306067E0,2.211817494E0,8.347086870E0,9.553641543E0
6.821592833E0,4.807467566E0,2.530542203E0,1.206372741E1,1.323060495E1
6.831624833E0,6.349319569E0,1.242122559E0,1.731471535E1,1.848394154E1
6.841656833E0,7.815092572E0,-1.044451221E0,2.307620497E1,2.438601620E1
6.851687833E0,7.518264517E0,-1.796143903E0,2.652733456E1,2.763059741E1
6.861719833E0,5.620499221E0,-6.647334755E-1,2.656553793E1,2.716173204E1
6.871750833E0,4.054725966E0,3.630657528E-1,2.436931437E1,2.470700513E1
6.881782833E0,3.241081815E0,6.446158377E-1,2.142701651E1,2.168034080E1
6.891813833E0,2.470111814E0,1.294048465E0,1.731325354E1,1.753638395E1
6.901845833E0,1.317632333E0,2.415243296E0,1.290722569E1,1.319719782E1
6.911877833E0,-5.142943378E-1,3.101849670E0,1.002807775E1,1.050943926E1
6.921908833E0,-2.282026328E0,2.730419037E0,8.606270551E0,9.312933216E0
6.931940833E0,-3.344291019E0,1.865848854E0,8.321654406E0,9.160546185E0
6.941971833E0,-3.286403584E0,8.696232741E-1,8.691742811E0,9.332903420E0
6.952003833E0,-2.688185768E0,1.176007361E-1,7.237523321E0,7.721522938E0
6.962034833E0,-2.544803562E0,1.259627296E-1,4.263471565E0,4.966797919E0
6.972066833E0,-2.186140177E0,4.333696041E-1,1.859540877E0,2.902569614E0
6.982097833E0,-1.622858159E0,7.972622263E-1,1.178087654E0,2.158051478E0
6.992129833E0,-1.356007317E0,1.348333577E0,2.206383092E0,2.919740678E0
7.002161833E0,-5.732462583E-1,1.559666130E0,2.024403707E0,2.619041825E0
7.012192833E0,1.948847741E-1,1.436173813E0,1.070198339E-1,1.453281989E0
7.022224833E0,4.492906952E-1,1.678193577E0,-2.042170472E0,2.681166919E0
7.032255833E0,9.624984741E-2,1.988602083E0,-4.381380669E0,4.812514815E0
7.042287833E0,-4.935634732E-1,1.978718534E0,-6.547728460E0,6.857964707E0
7.052318833E0,-9.885314476E-1,1.962659449E0,-8.097732943E0,8.390620082E0
7.062350833E0,-1.428833218E0,2.248404692E0,-9.117907768E0,9.499112068E0
7.072382833E0,-1.598007785E0,2.451064216E0,-9.891386225E0,1.031507955E1
7.082414083E0,-1.392334898E0,2.527156372E0,-1.048780105E1,1.087745773E1
7.092446083E0,-1.321434192E0,2.587253178E0,-1.091339415E1,1.129346002E1
7.102477083E0,-1.343787805E0,2.298289481E0,-1.106245956E1,1.137830882E1
7.112509083E0,-1.444276007E0,1.420110050E0,-1.074648070E1,1.093569811E1
7.122540083E0,-1.889484469E0,3.990555844E-1,-9.983619035E0,1.016867966E1
7.132572083E0,-2.567844515E0,-5.184096082E-1,-9.070079883E0,9.440811568E0
7.142604083E0,-3.056512991E0,-1.334626973E0,-8.414806398E0,9.051655514E0
7.152635083E0,-3.556677971E0,-1.941677739E0,-7.989408596E0,8.958276639E0
7.162667083E0,-4.051633666E0,-2.333207007E0,-7.779875377E0,9.076676219E0
7.172698083E0,-4.236176178E0,-2.692407750E0,-7.666059909E0,9.163117517E0
7.182730083E0,-4.179865445E0,-2.943154483E0,-7.621000096E0,9.176768271E0
7.192761083E0,-4.063388909E0,-2.990745264E0,-7.797091334E0,9.287105035E0
7.202793083E0,-3.741241240E0,-2.886249673E0,-8.051746931E0,9.335842321E0
7.212825083E0,-3.350974386E0,-2.855447126E0,-8.246639307E0,9.348244085E0
7.222856083E0,-3.062985567E0,-2.806564988E0,-8.199424210E0,9.191803141E0
7.232888083E0,-2.853484215E0,-2.902355829E0,-8.124517869E0,9.087014478E0
7.242919083E0,-2.714644711E0,-3.012618528E0,-7.875739893E0,8.858467427E0
7.252951083E0,-2.336263492E0,-2.997847877E0,-7.309889631E0,8.238914092E0
7.262982083E0,-1.489256298E0,-2.829760307E0,-6.745389492E0,7.464965312E0
7.273014083E0,-2.735929745E-1,-2.500310928E0,-6.276734573E0,6.761937943E0
7.283045083E0,1.262498936E0,-2.223619953E0,-5.723468689E0,6.268690700E0
7.293077083E0,2.695630443E0,-2.000914273E0,-4.676647518E0,5.756831890E0
7.303109083E0,3.265339574E0,-1.970355116E0,-2.811679255E0,4.738172860E0
7.313140083E0,3.210362883E0,-2.191295814E0,-2.129707968E-1,3.892757859E0
7.323172083E0,3.372580141E0,-2.731182391E0,2.629335004E0,5.074155755E0
7.333203083E0,3.739137120E0,-2.822750373E0,5.066222938E0,6.900411649E0
7.343235083E0,3.999013696E0,-1.811515941E0,6.132371496E0,7.541861886E0
7.353266083E0,3.836356728E0,-1.243971010E-1,5.538189721E0,6.738297482E0
7.363298083E0,3.351155650E0,1.294914438E0,4.695016546E0,5.911871781E0
7.373330083E0,2.948558480E0,2.103888126E0,4.661966329E0,5.903750707E0
7.383361083E0,2.194186238E0,2.449005265E0,5.417045352E0,6.336912528E0
7.393393083E0,1.550165136E0,2.520826177E0,6.607868827E0,7.240269815E0
7.403424083E0,1.003585543E0,2.334961610E0,8.183347290E0,8.568920733E0
7.413456083E0,5.310214676E-1,2.361082876E0,1.062621751E1,1.089831155E1
7.423487083E0,5.516785111E-1,2.099460468E0,1.395652959E1,1.412433367E1
7.433519083E0,6.698818758E-1,1.183283344E0,1.800277943E1,1.805405684E1
7.443551083E0,3.397919342E-1,3.592280059E-1,2.119119362E1,2.119696182E1
7.453582083E0,-1.893148626E-1,1.579156800E-1,2.195287298E1,2.195425721E1
7.463614083E0,-5.646907586E-1,6.768807006E-1,2.039369188E1,2.041273406E1
7.473645083E0,-2.534652503E-1,1.567160799E0,1.825050257E1,1.831941816E1
7.483677083E0,2.684047401E-2,1.889215204E0,1.700929539E1,1.711391201E1
7.493708083E0,-5.691429748E-1,1.101474657E0,1.563356717E1,1.568265260E1
7.503740083E0,-1.626000745E0,4.114362596E-1,1.307367721E1,1.318082676E1
7.513772083E0,-2.175999059E0,5.196046694E-1,1.012853760E1,1.037266768E1
7.523803083E0,-1.561505957E0,7.695380918E-1,7.859109242E0,8.049601717E0
7.533835083E0,-7.855903798E-1,1.399852956E0,7.248065851E0,7.423691745E0
7.543866083E0,-1.369730732E-1,1.729525991E0,7.438796763E0,7.638436951E0
7.553898083E0,1.002585523E-1,1.443120305E0,6.182610188E0,6.349591855E0
7.563929083E0,-3.196298575E-1,1.399829713E0,2.789907732E0,3.137717582E0
7.573961083E0,-8.295270891E-1,1.475157200E0,-1.527938261E0,2.280087561E0
7.583993083E0,-8.772656581E-1,1.690177007E0,-5.235365930E0,5.570937962E0
7.594024083E0,-9.350919896E-1,1.953295718E0,-7.723108268E0,8.020982640E0
7.604056083E0,-1.318850746E0,1.892625447E0,-9.058486608E0,9.347597446E0
7.614087083E0,-1.789373559E0,1.936252546E0,-9.484986611E0,9.844587481E0
7.624119083E0,-2.080479675E0,1.939047661E0,-9.698470793E0,1.010686090E1
7.634150083E0,-2.210026492E0,1.790012513E0,-1.013167171E1,1.052326629E1
7.644182083E0,-2.173504198E0,1.698195732E0,-1.053647444E1,1.089152345E1
7.654213083E0,-2.019686466E0,1.597408299E0,-1.084082904E1,1.114246027E1
7.664245083E0,-1.758320604E0,1.426504418E0,-1.116597399E1,1.139322524E1
7.674277083E0,-1.419264542E0,1.201919443E0,-1.166355567E1,1.181090399E1
7.684308083E0,-1.110762813E0,8.806365048E-1,-1.210236114E1,1.218509170E1
7.694340083E0,-1.040027876E0,4.580764291E-1,-1.216557889E1,1.221854336E1
7.704371083E0,-1.269774334E0,-1.001812959E-1,-1.155823796E1,1.162820828E1
7.714403083E0,-1.768783027E0,-8.181011181E-1,-1.041985875E1,1.060053485E1
7.724434083E0,-2.279206070E0,-1.620510356E0,-9.076901245E0,9.497945584E0
7.734466083E0,-2.708168627E0,-2.254071813E0,-7.925424269E0,8.673371138E0
7.744498083E0,-3.071460814E0,-2.846978896E0,-7.124199604E0,8.263980902E0
7.754529083E0,-3.323846814E0,-3.248051404E0,-6.685036871E0,8.141714410E0
7.764561083E0,-3.553562867E0,-3.437866935E0,-6.634886472E0,8.274566853E0
7.774592083E0,-3.497740376E0,-3.526568027E0,-7.028631542E0,8.606540021E0
7.784624083E0,-3.218810063E0,-3.295546290E0,-7.692558905E0,8.966427722E0
7.794655083E0,-2.934313786E0,-2.894373502E0,-8.355045515E0,9.316350193E0
7.804687083E0,-2.728533018E0,-2.657285280E0,-8.826948563E0,9.613588218E0
7.814719083E0,-2.792599205E0,-2.640709008E0,-8.862777961E0,9.660268505E0
7.824750083E0,-3.082190747E0,-2.795005042E0,-8.344374347E0,9.324190915E0
7.834782083E0,-3.300060633E0,-3.025832651E0,-7.581161261E0,8.804548227E0
7.844813083E0,-3.023190587E0,-3.059555883E0,-7.052988703E0,8.261066104E0
7.854845083E0,-2.267011994E0,-2.801055156E0,-6.785124246E0,7.682653474E0
7.864876083E0,-1.295746497E0,-2.378290647E0,-6.646926473E0,7.177524429E0
7.874908083E0,-2.280159751E-1,-1.849378417E0,-6.238945772E0,6.511269934E0
7.884940083E0,8.779638156E-1,-1.332594627E0,-5.407402709E0,5.637963547E0
7.894971083E0,1.629949955E0,-7.819504881E-1,-4.025720853E0,4.413004850E0
7.905003083E0,1.700892907E0,-8.533770047E-2,-2.662428491E0,3.160513355E0
7.915034083E0,1.871325210E0,8.188947315E-1,-1.646696965E0,2.623748752E0
7.925066083E0,3.281034670E0,2.314347251E0,-1.140997596E0,4.174118736E0
7.935097083E0,6.379948454E0,4.854553732E0,-8.278137088E-1,8.059510515E0
7.945129083E0,9.509107545E0,7.279830265E0,8.672414839E-1,1.200712966E1
7.955160083E0,1.168532017E1,7.454524019E0,4.368591639E0,1.453276398E1
7.965192083E0,1.201303205E1,4.817316908E0,9.525998982E0,1.607059855E1
7.975224083E0,1.009954126E1,9.992952946E-1,1.589099903E1,1.885532219E1
7.985255083E0,7.773195518E0,-2.240849212E0,2.131239003E1,2.279609490E1
7.995287083E0,5.980088950E0,-3.488997912E0,2.374173740E1,2.473064223E1
8.005318083E0,5.632787145E0,-3.098971671E0,2.436588557E1,2.519976778E1
8.015350083E0,6.588820353E0,-2.381942233E0,2.321909221E1,2.425309146E1
8.025381083E0,6.584619128E0,-1.303220262E0,2.116932036E1,2.220801019E1
8.035413083E0,5.701407144E0,-2.499803828E-1,1.961037081E1,2.042388741E1
8.045445083E0,4.841568820E0,2.880228430E-1,1.900066292E1,1.960991936E1
8.055476083E0,4.519974883E0,7.071741016E-1,1.892356855E1,1.946873686E1
8.065508083E0,4.532313385E0,1.040286250E0,1.851650878E1,1.909149438E1
8.075539083E0,4.749145683E0,1.168303581E0,1.704101069E1,1.772894141E1
8.085571125E0,4.474669779E0,1.189443166E0,1.363992274E1,1.440433744E1
8.095602125E0,3.410325087E0,1.021718709E0,9.887117758E0,1.050853576E1
8.105634125E0,1.999002233E0,6.225724925E-1,7.583232930E0,7.866957995E0
8.115666125E0,1.171688461E-1,1.236525312E-2,7.025668173E0,7.026656012E0
8.125697125E0,-1.565428854E0,-7.147133553E-1,7.424343030E0,7.621171308E0
8.135729125E0,-2.850959095E0,-1.542650294E0,6.636047144E0,7.385449166E0
8.145760125E0,-4.282243759E0,-2.406626254E0,4.347235853E0,6.559567143E0
8.155792125E0,-6.190782257E0,-3.161595935E0,1.090715634E0,7.036414883E0
8.165823125E0,-7.788447980E0,-3.095188815E0,-2.383620384E0,8.713309467E0
8.175855125E0,-8.694414403E0,-2.598911649E0,-5.363707051E0,1.054118290E1
8.185886125E0,-8.917445335E0,-1.915682188E0,-7.327600263E0,1.169976047E1
8.195918125E0,-8.385809471E0,-1.163021426E0,-8.581633893E0,1.205482723E1
8.205950125E0,-7.021604943E0,-4.353345609E-1,-9.778122150E0,1.204591736E1
8.215981125E0,-5.466626233E0,2.249532400E-1,-1.089812006E1,1.219440966E1
8.226013125E0,-4.030084923E0,4.982097804E-1,-1.161021503E1,1.229987359E1
8.236044125E0,-3.121572621E0,4.688394720E-1,-1.203162269E1,1.243880905E1
8.246076125E0,-2.737991766E0,2.062308210E-1,-1.233013591E1,1.263215665E1
8.256107125E0,-2.587567466E0,-2.450152197E-1,-1.263910279E1,1.290358311E1
8.266139125E0,-2.730111474E0,-8.032678284E-1,-1.281725575E1,1.312938662E1
8.276171125E0,-3.009104059E0,-1.400823301E0,-1.249124074E1,1.292470922E1
8.286202125E0,-3.248584378E0,-2.072341813E0,-1.167062612E1,1.229029760E1
8.296234125E0,-3.435249136E0,-2.881162303E0,-1.042751977E1,1.135055952E1
8.306265125E0,-3.542471868E0,-3.590487449E0,-9.080204337E0,1.038705049E1
8.316297125E0,-3.601630488E0,-4.026281309E0,-7.773189670E0,9.466000264E0
8.326328125E0,-3.668105144E0,-4.320684816E0,-6.752394456E0,8.815789444E0
8.336360125E0,-3.684114528E0,-4.324800379E0,-6.265365831E0,8.457624204E0
8.346392125E0,-3.468845775E0,-3.983437883E0,-6.268537361E0,8.197269608E0
8.356423125E0,-2.957858184E0,-3.577525342E0,-6.698884247E0,8.150009985E0
8.366455125E0,-2.612620153E0,-3.205701775E0,-7.328577332E0,8.414888808E0
8.376486125E0,-2.584984750E0,-2.860651732E0,-7.849212245E0,8.745033297E0
8.386518125E0,-2.577149774E0,-2.571447569E0,-8.063660048E0,8.847409617E0
8.396549125E0,-2.524706974E0,-2.245697431E0,-8.166000355E0,8.837469324E0
8.406581125E0,-2.205203416E0,-1.779430222E0,-8.340304685E0,8.808517256E0
8.416613125E0,-1.669492043E0,-1.260973398E0,-8.346764104E0,8.604982777E0
8.426644125E0,-9.556711189E-1,-8.687373479E-1,-7.887426723E0,7.992465963E0
8.436676125E0,-2.167697328E-1,-8.070223255E-1,-7.325059648E0,7.372568955E0
8.446707125E0,4.596458218E-1,-8.672311782E-1,-6.765000468E0,6.835831737E0
8.456739125E0,9.811502150E-1,-7.652919900E-1,-6.193180785E0,6.316946715E0
8.466770125E0,1.340856158E0,-6.445455980E-1,-5.205641025E0,5.414058805E0
8.476802125E0,1.420524471E0,-5.117112572E-1,-3.849761762E0,4.135263451E0
8.486833125E0,1.369377414E0,-3.381052317E-1,-2.329005051E0,2.722824669E0
8.496865125E0,1.759383774E0,-3.816770017E-2,-4.435060447E-1,1.814823862E0
8.506897125E0,3.130025064E0,4.479524868E-1,1.424613867E0,3.468031574E0
8.516928125E0,4.888799704E0,1.077918199E0,3.317797869E0,6.005834904E0
8.526960125E0,6.408905035E0,2.032153315E0,5.271590016E0,8.543615870E0
8.536991125E0,6.892600747E0,2.702356787E0,7.625313587E0,1.062808000E1
8.547023125E0,5.650657990E0,2.373748530E0,1.038320723E1,1.205718085E1
8.557054125E0,3.762018736E0,1.058368326E0,1.308647560E1,1.365755366E1
8.567086125E0,2.359390692E0,-4.369898345E-1,1.522386681E1,1.541180733E1
8.577118125E0,1.707780342E0,-6.132914995E-1,1.632285216E1,1.642340229E1
8.587149125E0,1.577347379E0,4.676418526E-1,1.619387194E1,1.627722955E1
8.597181125E0,9.623435960E-1,1.520328987E0,1.612025900E1,1.622036546E1
8.607212125E0,-3.227128751E-1,2.057852558E0,1.601806136E1,1.615293133E1
8.617244125E0,-1.607133681E0,2.285942355E0,1.534379320E1,1.559616622E1
8.627275125E0,-2.977219777E0,2.343716792E0,1.414042452E1,1.463927770E1
8.637307125E0,-4.109449765E0,2.431884910E0,1.258655035E1,1.346190519E1
8.647339125E0,-4.403830176E0,2.215152015E0,1.064356386E1,1.172970888E1
8.657370125E0,-4.034204871E0,1.575940832E0,9.189105220E0,1.015864426E1
8.667402125E0,-3.376820541E0,4.923448769E-1,8.928189594E0,9.558132133E0
8.677433125E0,-2.531316374E0,-6.986367282E-1,8.519280354E0,8.914807548E0
8.687465125E0,-1.608076544E0,-1.382764468E0,7.218276041E0,7.523393965E0
8.697496125E0,-5.747589330E-1,-1.264007664E0,6.047531320E0,6.204893092E0
8.707528125E0,9.523382060E-2,-6.085793746E-1,5.357822413E0,5.393115922E0
8.717560125E0,5.255354637E-1,5.528103858E-3,5.005684376E0,5.033199197E0
8.727591125E0,3.695968004E-1,4.792301935E-1,5.264110842E0,5.298785364E0
8.737623125E0,6.714065373E-2,8.007979645E-1,4.829670905E0,4.896070496E0
8.747654125E0,-3.426958077E-1,8.782348341E-1,3.091904141E0,3.232430674E0
8.757686125E0,-9.178198993E-1,9.377340540E-1,1.059034250E0,1.686206413E0
8.767717125E0,-1.497834310E0,1.117773771E0,-1.066222233E0,2.151686704E0
8.777749125E0,-1.863135161E0,1.290476401E0,-3.222121634E0,3.939374290E0
8.787781125E0,-2.366807593E0,1.463600324E0,-5.126934578E0,5.833469145E0
8.797812125E0,-2.799712343E0,1.755246577E0,-6.551892262E0,7.338022347E0
8.807844125E0,-2.828355221E0,2.131637842E0,-7.492950166E0,8.287808838E0
8.817875125E0,-2.701477658E0,2.368712177E0,-7.914845486E0,8.692154968E0
8.827907125E0,-2.587631493E0,2.306217575E0,-8.309334322E0,9.003305677E0
8.837938125E0,-2.533341265E0,2.177102136E0,-8.864045053E0,9.472533261E0
8.847970125E0,-2.355202039E0,2.227894413E0,-9.490335644E0,1.002880655E1
8.858001125E0,-2.056867887E0,2.350102098E0,-9.986734432E0,1.046367765E1
8.868033125E0,-1.628240814E0,2.356928576E0,-1.027491562E1,1.066677887E1
8.878065125E0,-1.268764082E0,2.272971768E0,-1.036679409E1,1.068861931E1
8.888096125E0,-9.161553432E-1,2.009935065E0,-1.014143772E1,1.037920704E1
8.898128125E0,-6.220871736E-1,1.525294735E0,-9.488161649E0,9.630094909E0
8.908159125E0,-7.747949579E-1,9.321207270E-1,-8.490486910E0,8.576568326E0
8.918191125E0,-1.333271003E0,2.308712436E-1,-7.741819943E0,7.859178655E0
8.928222125E0,-1.703003021E0,-5.469294025E-1,-7.640490620E0,7.847066201E0
8.938254125E0,-1.904779908E0,-1.063058158E0,-7.839356178E0,8.137185289E0
8.948286125E0,-1.957966766E0,-1.237828218E0,-8.237020637E0,8.556539109E0
8.958317125E0,-1.572898964E0,-1.305301286E0,-8.661485224E0,8.899390366E0
8.968349125E0,-9.985845655E-1,-1.330374439E0,-8.942983634E0,9.096374198E0
8.978380125E0,-3.537210251E-1,-1.183698204E0,-8.620496242E0,8.708571379E0
8.988412125E0,-2.703460157E-2,-1.076448940E0,-7.617324536E0,7.693055718E0
8.998443125E0,-8.851222694E-2,-1.300260694E0,-6.516607824E0,6.645651948E0
9.008475125E0,-7.931324109E-2,-1.755684241E0,-6.039112499E0,6.289642082E0
9.018507125E0,-2.032952629E-2,-2.176809922E0,-6.037854763E0,6.418302335E0
9.028538125E0,-1.508313397E-1,-2.418340420E0,-6.063827510E0,6.530017194E0
9.038570125E0,-1.434035486E-1,-2.479851521E0,-5.674477792E0,6.194346322E0
9.048601125E0,3.690139060E-1,-2.641715899E0,-4.867696518E0,5.550612898E0
9.058633125E0,1.149513334E0,-2.758735641E0,-3.744884348E0,4.791258918E0
9.068664125E0,1.785685281E0,-2.479990100E0,-1.940706078E0,3.620132995E0
9.078696125E0,2.266367923E0,-2.003950147E0,8.628157264E-1,3.145900623E0
9.088727875E0,2.922512058E0,-1.868771731E0,3.317810149E0,4.800130070E0
9.098758875E0,3.714472687E0,-1.901177731E0,4.870203220E0,6.413319227E0
9.108790875E0,4.274910473E0,-1.699641602E0,5.393899149E0,7.089272823E0
9.118821875E0,4.689654357E0,-1.036849329E0,5.966424592E0,7.659382281E0
9.128853875E0,3.255422696E0,-4.403742030E-1,7.727624073E0,8.396897057E0
9.138884875E0,2.583108744E-1,-7.543785274E-2,1.190698461E1,1.191002510E1
9.148916875E0,-1.616176254E0,-6.070723644E-1,1.736561419E1,1.745122113E1
9.158948875E0,-2.220548264E0,-1.446842350E0,2.031738104E1,2.048951341E1
9.168979875E0,-1.667142924E0,-5.283520309E-1,1.985566618E1,1.993253624E1
9.179011875E0,-9.963868895E-1,1.461959157E0,1.805962256E1,1.814607611E1
9.189042875E0,-1.201320908E0,2.953887048E0,1.658025828E1,1.688412229E1
9.199074875E0,-2.298509775E0,3.934156087E0,1.572060883E1,1.636759827E1
9.209105875E0,-3.342862544E0,4.378576052E0,1.541538417E1,1.637011690E1
9.219137875E0,-4.074033473E0,3.929662794E0,1.540797458E1,1.641480061E1
9.229168875E0,-4.365264281E0,3.432120291E0,1.494393019E1,1.594227184E1
9.239200875E0,-4.290364372E0,3.096719616E0,1.425233672E1,1.520282871E1
9.249232875E0,-4.152207237E0,2.531793507E0,1.358096644E1,1.442544463E1
9.259263875E0,-4.217726166E0,1.770069415E0,1.295143766E1,1.373543218E1
9.269295875E0,-4.259056333E0,9.648322441E-1,1.169658659E1,1.248521525E1
9.279326875E0,-4.008997816E0,6.082707147E-1,9.590203164E0,1.041220695E1
9.289358875E0,-3.143516344E0,7.642289662E-1,6.581516011E0,7.333627610E0
9.299389875E0,-2.244289714E0,1.083933010E0,2.956237044E0,3.866663232E0
9.309421875E0,-1.696734805E0,1.249868951E0,-4.599419832E-1,2.156995137E0
9.319453875E0,-1.818186152E0,8.760225400E-1,-2.936029066E0,3.562791469E0
9.329484875E0,-2.793573936E0,2.870222747E-2,-4.408085487E0,5.218821401E0
9.339516875E0,-3.558697307E0,-8.388150989E-1,-5.381700103E0,6.506199605E0
9.349547875E0,-4.090750370E0,-1.533177512E0,-6.408048418E0,7.755511357E0
9.359579875E0,-3.912504140E0,-1.714001341E0,-7.453880240E0,8.591031363E0
9.369610875E0,-3.306270084E0,-1.343016558E0,-8.519424781E0,9.236650580E0
9.379642875E0,-2.784178045E0,-8.123741359E-1,-9.750026278E0,1.017224712E1
9.389674875E0,-2.014656984E0,-7.994492311E-2,-1.074791795E1,1.093540005E1
9.399705875E0,-1.095607122E0,8.461331816E-1,-1.144391554E1,1.152733704E1
9.409737875E0,-3.331236233E-1,1.455952897E0,-1.197421356E1,1.206700296E1
9.419768875E0,2.300791651E-1,1.558566561E0,-1.216002872E1,1.226166239E1
9.429800875E0,3.341069788E-1,1.264369022E0,-1.200847473E1,1.207947523E1
9.439831875E0,-1.386006457E-1,7.578146437E-1,-1.173406841E1,1.175933054E1
9.449863875E0,-9.190103924E-1,1.741770791E-1,-1.129809650E1,1.133675008E1
9.459894875E0,-1.442115899E0,-4.327295532E-1,-1.080396351E1,1.090837205E1
9.469926875E0,-1.844878838E0,-1.080403046E0,-1.022247195E1,1.044364790E1
9.479958875E0,-2.199635259E0,-1.597451715E0,-9.598557665E0,9.976099263E0
9.489989875E0,-2.266618038E0,-2.006477898E0,-9.072367898E0,9.564066612E0
9.500021875E0,-2.191008862E0,-2.226515055E0,-8.727787971E0,9.269960733E0
9.510052875E0,-2.137713976E0,-2.224450842E0,-8.699938853E0,9.230760458E0
9.520084875E0,-2.088015713E0,-2.087215375E0,-8.844737547E0,9.324465664E0
9.530115875E0,-1.757819790E0,-2.106293670E0,-8.929847279E0,9.341765137E0
9.540147875E0,-1.559405637E0,-2.029123580E0,-8.893037887E0,9.253929506E0
9.550179875E0,-1.802348823E0,-1.870260578E0,-8.855845503E0,9.228885928E0
9.560210875E0,-2.098763041E0,-1.899239671E0,-8.921223221E0,9.359494719E0
9.570242875E0,-2.318133031E0,-2.093877108E0,-8.926595058E0,9.457386606E0
9.580273875E0,-2.502736353E0,-2.230852081E0,-8.721678801E0,9.343878818E0
9.590305875E0,-2.382635275E0,-2.188607849E0,-8.349578953E0,8.954463907E0
9.600336875E0,-2.099867873E0,-2.154114831E0,-7.890182515E0,8.444207240E0
9.610368875E0,-1.738772631E0,-1.889683274E0,-7.040359302E0,7.494057128E0
9.620400875E0,-1.029041104E0,-1.554162585E0,-5.962204657E0,6.246777673E0
9.630431875E0,-3.401617706E-4,-1.355235484E0,-5.077277684E0,5.255036823E0
9.640463875E0,8.955257817E-1,-1.276234046E0,-4.162395426E0,4.444803196E0
9.650494875E0,1.361737003E0,-1.115857638E0,-2.761016639E0,3.274550170E0
9.660526875E0,1.036053597E0,-1.032910718E0,-5.393033177E-1,1.559217648E0
9.670557875E0,9.270022206E-1,-1.356616158E0,1.905812818E0,2.516319339E0
9.680589875E0,1.859140635E0,-1.833805235E0,4.339431574E0,5.064574210E0
9.690621875E0,3.564414130E0,-1.635944082E0,6.951800297E0,7.981784794E0
9.700652875E0,5.051583264E0,-4.229996402E-1,8.947187197E0,1.028346152E1
9.710684875E0,5.502096028E0,1.021353258E0,1.003622877E1,1.149095780E1
9.720715875E0,4.657256689E0,1.483909020E0,1.130930211E1,1.232040340E1
9.730747875E0,3.306818553E0,3.892370130E-1,1.308791869E1,1.350482025E1
9.740778875E0,2.294426372E0,-1.126706635E0,1.489513751E1,1.511287470E1
9.750810875E0,1.720245875E0,-1.546726242E0,1.571970134E1,1.588900935E1
9.760841875E0,1.053249527E0,-4.352111115E-1,1.570009445E1,1.574140112E1
9.770873875E0,4.963273059E-1,9.919404475E-1,1.563398817E1,1.567328532E1
9.780905875E0,-1.505238127E-1,1.581654585E0,1.615549783E1,1.623343459E1
9.790936875E0,-7.512834500E-1,1.848754811E0,1.604408849E1,1.616771773E1
9.800968875E0,-1.957948567E-1,1.985750104E0,1.554148288E1,1.566905324E1
9.810999875E0,1.017240107E0,1.605278652E0,1.616574449E1,1.627706951E1
9.821031875E0,1.587140735E0,6.089521711E-1,1.771310018E1,1.779448669E1
9.831062875E0,9.666726552E-1,-7.696381523E-1,1.818028921E1,1.822223133E1
9.841094875E0,-1.235198360E-1,-1.631380476E0,1.624379195E1,1.632597429E1
9.851126875E0,-1.402967621E0,-1.506530874E0,1.336064803E1,1.351831606E1
9.861157875E0,-1.982135355E0,-7.809220359E-1,1.063791428E1,1.084914375E1
9.871189875E0,-1.962209944E0,2.652202003E-1,8.314924845E0,8.547431474E0
9.881220875E0,-1.687878320E0,1.177553219E0,6.308207796E0,6.635438976E0
9.891252875E0,-1.313629329E0,1.802311400E0,4.497663077E0,5.020251144E0
9.901283875E0,-9.702214766E-1,2.134123785E0,2.704158314E0,3.578866613E0
9.911315875E0,-8.861281367E-1,2.128856029E0,1.043603448E0,2.531078668E0
9.921347875E0,-1.577300602E0,1.825530694E0,-9.404106170E-1,2.589365102E0
9.931378875E0,-2.409132079E0,1.668250241E0,-2.975708857E0,4.176340436E0
9.941410875E0,-3.119223502E0,1.828192492E0,-4.324977257E0,5.637133254E0
9.951441875E0,-3.345730603E0,1.986330732E0,-5.430645391E0,6.680668560E0
9.961473875E0,-3.334289356E0,2.210180274E0,-6.550550911E0,7.675421786E0
9.971504875E0,-3.327637272E0,2.320093164E0,-7.635150942E0,8.645896831E0
9.981536875E0,-2.955140398E0,2.255595305E0,-8.630578011E0,9.397203933E0
9.991568875E0,-2.581838071E0,2.164362077E0,-9.427966318E0,1.001183799E1
1.000159987E1,-2.159788238E0,2.148905400E0,-9.994886620E0,1.044893479E1
1.001163187E1,-1.942653054E0,2.166203803E0,-9.997253573E0,1.041208043E1
1.002166287E1,-2.194498772E0,2.116980626E0,-9.614362689E0,1.008629772E1
1.003169487E1,-2.470994743E0,1.934314633E0,-9.150535816E0,9.673659795E0
1.004172587E1,-2.745578236E0,1.859802686E0,-8.568406906E0,9.187745251E0
1.005175788E1,-2.806740112E0,1.766338745E0,-8.083938192E0,8.737722776E0
1.006178887E1,-2.615885823E0,1.502124558E0,-8.020388314E0,8.568889399E0
1.007182087E1,-2.518339064E0,1.143634763E0,-8.268057073E0,8.718411545E0
1.008185296E1,-2.474648668E0,8.766477536E-1,-8.570221297E0,8.963319162E0
1.009188396E1,-2.618545722E0,7.631351714E-1,-8.228915226E0,8.669152369E0
1.010191596E1,-2.508347049E0,4.211037536E-1,-7.356733430E0,7.784000260E0
1.011194696E1,-2.140201966E0,-1.073415770E-1,-6.636800265E0,6.974174104E0
1.012197896E1,-1.642082635E0,-5.242872293E-1,-6.519878756E0,6.743895868E0
1.013200996E1,-1.184362301E0,-7.826909649E-1,-6.763137546E0,6.910524486E0
1.014204196E1,-7.387449731E-1,-9.561713482E-1,-7.275776390E0,7.375427436E0
1.015207396E1,-2.365724981E-1,-1.108509735E0,-7.808135555E0,7.889977264E0
1.016210496E1,4.099000499E-2,-1.185875122E0,-7.663243890E0,7.754565552E0
1.017213696E1,3.720903455E-1,-1.495782668E0,-6.900967528E0,7.071009110E0
1.018216796E1,8.435292703E-1,-1.943916784E0,-5.960350505E0,6.325830556E0
1.019219996E1,9.638987361E-1,-2.402944701E0,-4.842458766E0,5.491142951E0
1.020223096E1,7.383023389E-1,-2.816779489E0,-3.637065200E0,4.659139437E0
1.021226296E1,6.594831144E-1,-3.137128846E0,-2.399265195E0,4.004118985E0
1.022229496E1,8.363216999E-1,-3.472880939E0,-1.481231287E0,3.867089620E0
1.023232596E1,9.328881741E-1,-3.821413583E0,-5.568426257E-1,3.972852355E0
1.024235796E1,1.378513542E0,-3.791805915E0,4.349059600E-1,4.057984090E0
1.025238896E1,1.935662270E0,-2.970902445E0,1.790251372E0,3.972159329E0
1.026242096E1,2.597994513E0,-1.390258844E0,3.046630320E0,4.238437383E0
1.027245196E1,2.236620798E0,4.559457037E-1,4.251654927E0,4.825653189E0
1.028248396E1,-3.525307148E-1,1.780576569E0,4.390246802E0,4.750683930E0
1.029251496E1,-2.890828920E0,1.711553112E0,4.989095240E0,6.014763272E0
1.030254696E1,-4.811213000E0,4.480692118E-1,8.451836230E0,9.735608466E0
1.031257896E1,-6.180785857E0,-8.899351126E-1,1.233070426E1,1.382173527E1
1.032260996E1,-6.389802766E0,-1.402560801E0,1.450578195E1,1.591271398E1
1.033264196E1,-5.731047850E0,-4.512372333E-1,1.421693183E1,1.533524291E1
1.034267296E1,-4.203242320E0,1.722479219E0,1.215298867E1,1.297417875E1
1.035270496E1,-2.435247644E0,4.073800461E0,1.101939832E1,1.199805904E1
1.036273596E1,-1.145470716E0,5.635490313E0,1.092446293E1,1.234563666E1
1.037276796E1,2.329339951E-1,6.389326218E0,1.141816674E1,1.308633942E1
1.038279996E1,1.241236121E0,6.211952101E0,1.268803229E1,1.418150836E1
1.039283096E1,2.045662137E0,5.371969167E0,1.434202599E1,1.545110015E1
1.040286296E1,2.494689707E0,4.299107421E0,1.663275693E1,1.735956233E1
1.041289396E1,2.474809174E0,3.227755719E0,1.916373592E1,1.959060646E1
1.042292596E1,2.303638806E0,1.806863604E0,1.956221665E1,1.978008665E1
1.043295696E1,1.775941189E0,7.067377532E-1,1.783999529E1,1.794209791E1
1.044298896E1,1.322535662E0,4.281845856E-1,1.475031250E1,1.481567284E1
1.045302096E1,1.274832761E0,1.049853245E0,1.107941882E1,1.120182627E1
1.046305196E1,1.891424136E0,1.917199686E0,6.832719412E0,7.344330770E0
1.047308396E1,3.045005086E0,2.441562783E0,2.538334202E0,4.655794811E0
1.048311496E1,3.634345075E0,2.708770598E0,-9.009506822E-1,4.621429910E0
1.049314696E1,3.490588062E0,2.257946763E0,-3.261086894E0,5.283674511E0
1.050317796E1,2.801557724E0,1.323612865E0,-4.612140450E0,5.556304188E0
1.051320996E1,1.987658342E0,2.586039296E-1,-5.596181821E0,5.944317677E0
1.052324196E1,1.506498860E0,-5.614329824E-1,-6.855815329E0,7.041800170E0
1.053327296E1,1.140748870E0,-1.026093669E0,-8.114023286E0,8.257817514E0
1.054330496E1,8.590317008E-1,-1.412669175E0,-9.179866034E0,9.327567211E0
1.055333596E1,5.573354729E-1,-1.782174905E0,-9.912237396E0,1.008658616E1
1.056336796E1,3.005442533E-1,-2.087396931E0,-1.046449990E1,1.067489161E1
1.057339896E1,2.641568110E-1,-2.344789318E0,-1.118746952E1,1.143360355E1
1.058343096E1,2.859284800E-1,-2.690509744E0,-1.193130786E1,1.223424313E1
1.059346196E1,3.594218411E-1,-2.884864175E0,-1.253375000E1,1.286648803E1
1.060349396E1,6.953878690E-1,-2.835762474E0,-1.270822740E1,1.303933115E1
1.061352596E1,1.215265859E0,-2.849139442E0,-1.235715473E1,1.273945602E1
1.062355696E1,1.575084653E0,-3.024410023E0,-1.157538901E1,1.206721088E1
1.063358896E1,1.712578129E0,-3.286955269E0,-1.077419183E1,1.139386714E1
1.064361996E1,1.725495797E0,-3.462697136E0,-1.002597042E1,1.074651990E1
1.065365196E1,1.743433447E0,-3.572547899E0,-9.500575288E0,1.029871786E1
1.066368296E1,1.743635322E0,-3.666090486E0,-9.285490723E0,1.013414138E1
1.067371496E1,1.525871855E0,-3.812629604E0,-9.357199221E0,1.021868909E1
1.068374696E1,1.256583893E0,-3.910956675E0,-9.465626480E0,1.031855949E1
1.069377796E1,1.001928661E0,-3.904955385E0,-9.256247628E0,1.009607140E1
1.070380996E1,9.062096679E-1,-3.856009220E0,-8.742025357E0,9.597553355E0
1.071384096E1,1.185261530E0,-3.760481503E0,-8.374680465E0,9.256421497E0
1.072387296E1,1.506079030E0,-3.686639063E0,-8.124591544E0,9.048125186E0
1.073390396E1,1.730386993E0,-3.652025886E0,-7.703576814E0,8.699231457E0
1.074393596E1,1.836137397E0,-3.654561531E0,-7.343939722E0,8.405990195E0
1.075396796E1,1.852858387E0,-3.694328737E0,-6.951958757E0,8.087699276E0
1.076399896E1,1.560887321E0,-3.772905375E0,-6.351521630E0,7.550696075E0
1.077403096E1,1.089411559E0,-3.806340923E0,-5.984210653E0,7.175362423E0
1.078406196E1,7.533513909E-1,-3.704690003E0,-5.369187647E0,6.566615743E0
1.079409396E1,6.958056526E-1,-3.593544374E0,-4.336689815E0,5.674908389E0
1.080412496E1,9.266125037E-1,-3.306255173E0,-2.978800864E0,4.545678012E0
1.081415696E1,1.296754411E0,-2.764395745E0,-1.406475804E0,3.361789706E0
1.082418896E1,1.535624865E0,-1.897327631E0,7.215429032E-1,2.545313345E0
1.083421996E1,1.640640127E0,-6.568127641E-1,3.001175235E0,3.482837324E0
1.084425196E1,1.212147831E0,1.072885135E0,4.089122213E0,4.397875095E0
1.085428296E1,2.702871781E-1,3.286265882E0,5.132015809E0,6.100015153E0
1.086431496E1,4.529885475E-2,6.169683164E0,6.984272225E0,9.319179193E0
1.087434596E1,2.628872343E-1,8.657852933E0,9.293405514E0,1.270412977E1
1.088437796E1,3.012762881E-1,1.010338521E1,1.290276544E1,1.639056180E1
1.089440896E1,-4.889719106E-1,1.070682956E1,1.779337193E1,2.077208168E1
1.090444096E1,-1.989297463E0,1.027567693E1,2.347157031E1,2.569944461E1
1.091447296E1,-2.656099172E0,9.183329340E0,2.704117852E1,2.868124363E1
1.092450396E1,-2.394623529E0,8.895145808E0,2.655939835E1,2.811155424E1
1.093453596E1,-1.622000519E0,9.991446118E0,2.334337595E1,2.544352731E1
1.094456696E1,-1.131695553E0,1.173564950E1,1.838999843E1,2.184486773E1
1.095459896E1,-1.266086788E0,1.294363981E1,1.421588635E1,1.926738727E1
1.096462996E1,-1.796669568E0,1.282169496E1,1.102945554E1,1.700802083E1
1.097466196E1,-2.269684610E0,1.193977930E1,8.871007333E0,1.504674613E1
1.098469396E1,-2.230284901E0,1.025105197E1,8.032247052E0,1.321269200E1
1.099472496E1,-1.901089730E0,7.639215342E0,7.859049600E0,1.112368706E1
1.100475696E1,-2.019635888E0,4.796421006E0,7.653401856E0,9.255222502E0
1.101478796E1,-1.906781117E0,2.651902918E0,6.552721982E0,7.321650681E0
1.102481996E1,-6.873679011E-1,1.574238269E0,4.337380956E0,4.665144619E0
1.103485096E1,1.009869107E0,1.201697249E0,1.476961066E0,2.155301807E0
1.104488296E1,2.955903460E0,1.060764734E0,-1.563178260E0,3.508007035E0
1.105491396E1,4.234433123E0,4.876715264E-1,-3.541863173E0,5.541934872E0
1.106494596E1,4.148033787E0,-7.971225509E-1,-4.322841854E0,6.043885369E0
1.107497796E1,2.822083790E0,-2.773432617E0,-3.452844577E0,5.251497032E0
1.108500883E1,1.181149695E0,-4.887783458E0,-2.153298560E0,5.470122158E0
1.109504083E1,8.959005151E-2,-6.162681123E0,-2.274257571E0,6.569544315E0
1.110507183E1,-3.726728012E-1,-6.243400766E0,-4.182539669E0,7.524132921E0
1.111510383E1,-6.493840959E-2,-5.661931422E0,-6.978950089E0,8.987070088E0
1.112513483E1,5.158989234E-1,-5.120676304E0,-1.059383797E1,1.177781306E1
1.113516683E1,1.191274514E0,-4.713813005E0,-1.372650130E1,1.456214290E1
1.114519883E1,1.893248614E0,-4.254821194E0,-1.518503194E1,1.588310702E1
1.115522983E1,1.956807117E0,-4.294473503E0,-1.501016277E1,1.573456650E1
1.116526183E1,1.500877347E0,-5.087849450E0,-1.330037844E1,1.431917985E1
1.117529283E1,5.624546006E-1,-6.079619671E0,-1.096561563E1,1.255081100E1
1.118532483E1,-4.001366250E-1,-6.928875119E0,-9.251469868E0,1.156542755E1
1.119535583E1,-1.231945188E0,-7.490515385E0,-8.114951824E0,1.111206339E1
1.120538783E1,-1.839943349E0,-7.407184376E0,-7.892685124E0,1.097935564E1
1.121541983E1,-1.800524345E0,-7.208968443E0,-8.370764000E0,1.119289077E1
1.122545083E1,-1.526078408E0,-7.232076640E0,-9.042338938E0,1.167885873E1
1.123548283E1,-1.002949877E0,-7.106013594E0,-9.425706954E0,1.184674171E1
1.124551383E1,-3.413890281E-1,-6.833356758E0,-9.235441480E0,1.149368045E1
1.125554583E1,2.110595613E-1,-6.637310727E0,-8.618780084E0,1.088034053E1
1.126557683E1,4.191429629E-1,-6.579714484E0,-7.715923795E0,1.014907895E1
1.127560883E1,1.962109957E-1,-6.665822920E0,-6.763159765E0,9.498001051E0
1.128564083E1,-2.442568358E-1,-6.842353284E0,-6.116992734E0,9.181234121E0
1.129567183E1,-6.469790630E-1,-6.989651663E0,-5.992901954E0,9.229771726E0
1.130570383E1,-8.270992521E-1,-7.020173544E0,-6.169635801E0,9.382501569E0
1.131573483E1,-5.101918582E-1,-6.748509566E0,-6.235759624E0,9.202574378E0
1.132576683E1,3.360130980E-1,-6.130009806E0,-6.061248888E0,8.627204826E0
1.133579783E1,1.388391536E0,-5.191210681E0,-5.586303535E0,7.751328052E0
1.134582983E1,2.412014317E0,-4.183333136E0,-5.018717819E0,6.964597457E0
1.135586083E1,3.049750687E0,-3.471436384E0,-4.059941683E0,6.151014249E0
1.136589283E1,3.305614319E0,-3.070148406E0,-2.388924394E0,5.104885603E0
1.137592483E1,2.756446748E0,-2.816961629E0,-3.897040594E-1,3.960447039E0
1.138595583E1,1.578290389E0,-2.540495333E0,1.154500571E0,3.205930233E0
1.139598783E1,3.674589121E-1,-1.785014606E0,1.820404878E0,2.575883754E0
1.140601883E1,-8.556998111E-2,-6.968974739E-1,1.647831910E0,1.791183495E0
1.141605083E1,4.109242628E-1,7.531751704E-1,1.573166474E0,1.791921969E0
1.142608183E1,1.056276850E0,2.397042668E0,2.619891751E0,3.704776258E0
1.143611383E1,1.249574543E0,3.742825836E0,5.382719273E0,6.674117810E0
1.144614583E1,4.723583995E-1,4.458390546E0,8.495232511E0,9.605693318E0
1.145617683E1,-6.510734296E-1,4.790884862E0,1.051740667E1,1.157550507E1
1.146620883E1,-1.711984929E0,5.349640989E0,1.211936016E1,1.335771095E1
1.147623983E1,-2.503328092E0,5.826580828E0,1.237311412E1,1.390358402E1
1.148627183E1,-2.578218352E0,6.425949669E0,1.145285710E1,1.338312276E1
1.149630283E1,-2.421271775E0,7.021376901E0,1.020456310E1,1.262122809E1
1.150633483E1,-1.714475258E0,7.680218942E0,9.344394988E0,1.221650139E1
1.151636683E1,-1.428152310E0,8.583010912E0,9.324809740E0,1.275381402E1
1.152639783E1,-1.148306396E0,9.401465567E0,8.796514390E0,1.292612965E1
1.153642983E1,-2.140484387E-1,9.751132572E0,8.803504736E0,1.313895349E1
1.154646083E1,3.149214420E-2,8.603102530E0,9.267343889E0,1.264507919E1
1.155649283E1,-2.847270233E-1,5.766174998E0,9.951074603E0,1.150450909E1
1.156652383E1,-9.873702637E-1,3.220038271E0,1.141569220E1,1.190216681E1
1.157655583E1,-1.352965741E0,1.428673005E0,1.229990113E1,1.245629121E1
1.158658683E1,-1.451284187E0,6.497221380E-2,1.231111609E1,1.239653284E1
1.159661883E1,-1.368129472E0,-7.019810432E-1,1.120703431E1,1.131203667E1
1.160665083E1,-4.227764227E-1,-2.618701842E-1,8.811187978E0,8.825211016E0
1.161668183E1,6.908597852E-1,3.257957464E-1,6.014346033E0,6.062655220E0
1.162671383E1,1.834354142E0,6.108799616E-1,2.918178102E0,3.500541798E0
1.163674483E1,2.447943411E0,6.043641168E-1,6.593437314E-2,2.522306538E0
1.164677683E1,2.098328447E0,5.557573825E-2,-2.148424906E0,3.003631220E0
1.165680783E1,8.819266199E-1,-8.001598871E-1,-3.322340571E0,3.529305495E0
1.166683983E1,-6.015435661E-1,-2.052532323E0,-3.906815384E0,4.453981370E0
1.167687183E1,-1.796256901E0,-3.322718009E0,-4.261402820E0,5.694431299E0
1.168690283E1,-2.632499517E0,-4.051798266E0,-4.368635493E0,6.513992552E0
1.169693483E1,-3.178376567E0,-4.365170725E0,-4.506100025E0,7.032903419E0
1.170696583E1,-3.339206865E0,-4.472503678E0,-5.096120921E0,7.558044726E0
1.171699783E1,-3.241301378E0,-4.417498043E0,-6.024809625E0,8.143626625E0
1.172702883E1,-3.274452460E0,-4.299890948E0,-6.957584363E0,8.810169195E0
1.173706083E1,-3.131084579E0,-4.237244464E0,-8.010411794E0,9.587733226E0
1.174709283E1,-2.686117315E0,-4.111915244E0,-9.264288134E0,1.048570970E1
1.175712383E1,-2.197777891E0,-3.907365607E0,-1.012627706E1,1.107425938E1
1.176715583E1,-1.780907229E0,-3.725251152E0,-1.043691040E1,1.122400220E1
1.177718683E1,-1.299029562E0,-3.562090154E0,-1.017528492E1,1.085874704E1
1.178721883E1,-9.879062341E-1,-3.753478001E0,-9.248018256E0,1.002947643E1
1.179724983E1,-7.647973155E-1,-3.858637835E0,-8.370415506E0,9.248667830E0
1.180728183E1,-3.965696407E-1,-3.696933964E0,-7.791285633E0,8.633001797E0
1.181731283E1,-3.234738171E-1,-3.480327660E0,-7.773484370E0,8.523166969E0
1.182734483E1,-4.755430855E-1,-3.299375047E0,-8.069507264E0,8.730920021E0
1.183737683E1,-5.497045641E-1,-3.130621772E0,-8.249444801E0,8.840605596E0
1.184740783E1,-1.580807542E-1,-3.077991569E0,-8.078737679E0,8.646677055E0
1.185743983E1,3.336336467E-1,-3.032740552E0,-7.763137137E0,8.341170474E0
1.186747083E1,6.402948184E-1,-2.944786734E0,-7.437002837E0,8.024385183E0
1.187750283E1,1.039168554E0,-2.872618059E0,-7.115255118E0,7.743297824E0
1.188753383E1,1.273858176E0,-2.722382331E0,-6.580785694E0,7.234695609E0
1.189756583E1,9.692083734E-1,-2.557636738E0,-5.821255184E0,6.431786881E0
1.190759783E1,5.298481872E-1,-2.578281795E0,-4.471634781E0,5.188814290E0
1.191762883E1,1.166943446E-1,-2.899051275E0,-2.997441203E0,4.171662694E0
1.192766083E1,5.438974750E-1,-3.213662759E0,-1.972319049E0,3.809658151E0
1.193769183E1,1.337965148E0,-2.950020576E0,-9.371958178E-1,3.372107374E0
1.194772383E1,1.949585075E0,-1.987265117E0,-5.775294900E-3,2.783906960E0
1.195775483E1,1.707883691E0,4.164933702E-1,1.483898202E0,2.300497187E0
1.196778683E1,1.292765294E-1,3.801911365E0,3.504778377E0,5.172495909E0
1.197781883E1,-1.007781870E-1,6.249174891E0,4.877150881E0,7.927732575E0
1.198784983E1,-4.354831532E-1,6.294356911E0,5.788286828E0,8.562291686E0
1.199788183E1,7.258571251E-1,4.677145116E0,6.804452217E0,8.288734824E0
1.200791283E1,2.258036225E0,4.379264562E0,1.013227280E1,1.126674921E1
1.201794483E1,1.341026458E0,5.700824761E0,1.375390954E1,1.494883883E1
1.202797583E1,-7.796903200E-1,6.548142443E0,1.592436207E1,1.723575916E1
1.203800783E1,-2.956911228E0,5.811300884E0,1.594541556E1,1.722703745E1
1.204803983E1,-5.294590623E0,3.714550747E0,1.444777055E1,1.582936041E1
1.205807083E1,-8.119783378E0,1.697066343E0,1.298795469E1,1.541096633E1
1.206810283E1,-7.994758213E0,1.241567658E0,1.375178583E1,1.595522681E1
1.207813383E1,-2.462748415E0,4.021840933E0,2.334977514E1,2.382125802E1
1.208816650E1,-6.656658871E-1,6.179618753E0,1.753737381E1,1.860618927E1
1.209819750E1,1.569377478E0,5.754967639E0,1.335080950E1,1.462281480E1
1.210822950E1,2.505935950E0,7.389474914E0,1.095420655E1,1.344911505E1
1.211826050E1,6.241592076E-1,6.766741769E0,1.017962706E1,1.223941077E1
1.212829250E1,4.068217832E-1,4.562260192E0,6.168774506E0,7.683326163E0
1.213832450E1,1.043200502E0,2.946728886E0,2.133972343E0,3.784879969E0
1.214835550E1,1.042238197E0,1.385030703E0,-2.085666740E-1,1.745872436E0
1.215838750E1,1.645519336E0,1.902416025E0,-8.570556343E-2,2.516796785E0
1.216841850E1,-4.863607268E-1,1.765580653E0,1.916294537E0,2.650661531E0
1.217845050E1,-1.452895680E0,3.956799138E-1,1.417248715E0,2.067864205E0
1.218848150E1,-2.277959151E0,-1.233693798E0,-7.114892006E-3,2.590588524E0
1.219851350E1,-1.916319242E0,-1.725225364E0,1.910161393E0,3.208955989E0
1.220854550E1,7.246870972E-1,-1.827949687E0,3.265229647E0,3.811600201E0
1.221857650E1,1.185871029E0,-9.431036983E-1,-1.368021591E0,2.041376437E0
1.222860850E1,8.620650901E-1,1.010673976E0,-4.935503170E0,5.111145629E0
1.223863950E1,2.028646009E0,4.245306605E-1,-6.226555522E0,6.562440444E0
1.224867150E1,2.033484287E0,9.162545997E-1,-7.620559800E0,7.940246376E0
1.225870250E1,8.379170396E-1,1.186180785E0,-7.759199622E0,7.893941259E0
1.226873450E1,4.420807494E-1,-1.351179563E0,-7.399284788E0,7.534622550E0
1.227876550E1,5.281632024E-1,-1.895790691E0,-7.867899361E0,8.110290936E0
1.228879750E1,7.131610657E-1,-7.938478178E-1,-7.048826655E0,7.129147935E0
1.229882950E1,3.855471641E-1,-1.148815031E0,-7.397693760E0,7.496285451E0
1.230886050E1,6.782457696E-2,-1.762245255E0,-8.200742172E0,8.388222737E0
1.231889250E1,-2.609687994E-1,-2.078856196E0,-8.568457192E0,8.820896012E0
1.232892350E1,-3.989667068E-1,-2.144235960E0,-8.026819666E0,8.317857671E0
1.233895550E1,-5.276745214E-1,-2.039110039E0,-6.802380549E0,7.121010552E0
1.234898650E1,-7.330642569E-1,-2.025839199E0,-5.135403686E0,5.569001587E0
1.235901850E1,-8.784106160E-1,-2.349050476E0,-4.890351555E0,5.495924097E0
1.236905050E1,-6.604085094E-1,-2.727213593E0,-5.806975114E0,6.449402559E0
1.237908150E1,-4.052803110E-1,-3.199814214E0,-6.655873298E0,7.396195812E0
1.238911350E1,-4.333416836E-1,-3.773401511E0,-7.263300771E0,8.196455458E0
1.239914450E1,-4.448959279E-1,-4.321149670E0,-7.242463049E0,8.445326392E0
1.240917650E1,-5.355523288E-1,-4.697833149E0,-6.817631841E0,8.296779889E0
1.241920750E1,-8.454366320E-1,-4.935295594E0,-6.159160514E0,7.937705206E0
1.242923950E1,-6.907337777E-1,-4.780468925E0,-5.385689074E0,7.234337778E0
1.243927150E1,-2.097634529E-1,-4.059284748E0,-4.053916127E0,5.740734216E0
1.244930250E1,-5.987138061E-1,-3.458567832E0,-5.245428988E0,6.311471694E0
1.245933450E1,-7.802644435E-1,-3.526812148E0,-6.645120268E0,7.563388124E0
1.246936550E1,-1.959179186E0,-3.967510652E0,-5.569859995E0,7.113569021E0
1.247939750E1,-2.755116214E0,-4.810102321E0,-3.860759790E0,6.755236180E0
1.248942850E1,-2.493353326E0,-4.677860815E0,-2.457282438E0,5.842724501E0
1.249946050E1,-1.744555674E0,-3.054153640E0,-9.814218181E-1,3.651645895E0
1.250949250E1,-1.760925539E0,-2.115675235E0,-1.024963109E0,2.937258897E0
1.251952350E1,-1.969414883E0,-2.163310747E0,-1.720701081E0,3.394012460E0
1.252955550E1,-1.519642378E0,-1.880824742E0,-1.889157609E0,3.068506337E0
1.253958650E1,-9.317583458E-1,-1.073000325E0,-1.837087569E0,2.322583486E0
1.254961850E1,2.354510021E0,2.158869787E0,7.048707372E-1,3.271280935E0
1.255964950E1,3.071404388E0,7.319982510E0,4.866351074E0,9.311124617E0
1.256968150E1,-2.557165745E-1,1.076442464E1,7.638755751E0,1.320184904E1
1.257971250E1,-1.977441064E0,1.178304820E1,9.734147580E0,1.541116891E1
1.258974450E1,-2.592793122E0,9.545679540E0,1.121039412E1,1.495043512E1
1.259977650E1,-5.529954502E-1,7.239289765E0,1.334160131E1,1.518918845E1
1.260980750E1,2.628604833E-1,6.259247890E0,1.417033186E1,1.549340456E1
1.261983950E1,2.115777708E-1,6.418128433E0,1.317695073E1,1.465841630E1
1.262987050E1,-2.688701785E-1,7.733312244E0,1.257025065E1,1.476101660E1
1.263990250E1,-9.709464582E-1,8.327247852E0,1.310093927E1,1.555379065E1
1.264993350E1,-1.988760396E0,7.705063176E0,1.506420040E1,1.703682189E1
1.265996550E1,-3.049930781E0,6.699268409E0,1.652871508E1,1.809366456E1
1.266999750E1,-3.559054280E0,5.062556734E0,1.611845104E1,1.726559620E1
1.268002850E1,-3.086286429E0,2.951764801E0,1.282372277E1,1.351613647E1
1.269006050E1,-2.360931580E0,1.732789614E0,8.487563303E0,8.978601705E0
1.270009150E1,-4.696080885E-1,2.432862419E0,3.095724712E0,3.965206526E0
1.271012350E1,2.133454718E0,3.313197865E0,-1.877283084E0,4.364985785E0
1.272015450E1,2.482671048E0,2.831612121E0,-4.149208785E0,5.603357590E0
1.273018650E1,1.931980863E0,1.801533574E0,-4.122623835E0,4.896335421E0
1.274021850E1,1.777549465E0,4.305076844E-1,-2.998408917E0,3.512189488E0
1.275024950E1,2.155329590E0,-3.905416730E-1,-1.831223397E0,2.855056491E0
1.276028150E1,2.197826276E0,-1.163760806E0,-1.968123672E0,3.171480781E0
1.277031250E1,2.231731941E0,-1.495507264E0,-2.311739393E0,3.544193625E0
1.278034450E1,3.627416709E0,-1.008747903E0,-3.465139518E0,5.116924486E0
1.279037550E1,3.740841875E0,-1.070466142E0,-4.969997649E0,6.311946794E0
1.280040750E1,3.399652749E0,-1.239376414E0,-6.153456556E0,7.138537686E0
1.281043850E1,4.154140327E0,-6.902679008E-1,-7.323665087E0,8.448042491E0
1.282047050E1,4.094076558E0,-2.093785599E-1,-8.164481249E0,9.135866478E0
1.283050250E1,3.389270141E0,3.757756993E-2,-8.293005388E0,8.958934229E0
1.284053350E1,3.128166819E0,-5.535892349E-1,-7.789651921E0,8.412524338E0
1.285056550E1,3.188810046E0,-1.603457390E0,-6.515059481E0,7.428700099E0
1.286059650E1,2.358289369E0,-7.831507753E-1,-4.548715702E0,5.183210243E0
1.287062850E1,2.464211973E0,4.723015353E-1,-3.998163511E0,4.720245846E0
1.288065950E1,3.330838037E0,4.449473834E-1,-4.863101192E0,5.911193907E0
1.289069150E1,3.349269923E0,-9.461916129E-1,-5.088354065E0,6.164757471E0
1.290072350E1,3.148970335E0,-1.927781685E0,-4.758659980E0,6.023055802E0
1.291075450E1,3.332921693E0,-1.557148612E0,-5.117794796E0,6.302769421E0
1.292078650E1,3.127064034E0,-1.099936109E0,-5.865909786E0,6.737750851E0
1.293081750E1,2.695193071E0,-1.055419940E0,-6.194271290E0,6.837175861E0
1.294084950E1,2.721840002E0,-1.200814466E0,-6.378591315E0,7.038238099E0
1.295088050E1,2.702832458E0,-1.588056701E0,-6.591139358E0,7.298653672E0
1.296091250E1,2.590405412E0,-2.199855406E0,-6.692658716E0,7.506080515E0
1.297094450E1,3.005144910E0,-2.110990300E0,-6.516030704E0,7.479694653E0
1.298097550E1,3.248695183E0,-2.115805774E0,-7.260801086E0,8.231031945E0
1.299100750E1,2.600323167E0,-2.014111731E0,-7.371228678E0,8.071761818E0
1.300103850E1,2.086805339E0,-1.911056017E0,-7.079066700E0,7.623652469E0
1.301107050E1,1.677028373E0,-1.934298699E0,-7.304640001E0,7.740264929E0
1.302110150E1,1.011236259E0,-2.004110507E0,-7.351646352E0,7.686726337E0
1.303113350E1,4.746874186E-1,-1.987684655E0,-6.932796262E0,7.227716267E0
1.304116550E1,3.382588673E-1,-1.795362862E0,-5.927566921E0,6.202724922E0
1.305119650E1,1.081840219E0,-1.739422111E0,-4.708349367E0,5.134639354E0
1.306122850E1,1.486396133E0,-1.792053484E0,-3.770609173E0,4.431514717E0
1.307125950E1,1.350226467E0,-1.527737702E0,-2.517873040E0,3.239873245E0
1.308129150E1,8.728532030E-1,-1.183967614E-1,1.778459877E-1,8.986210004E-1
1.309132150E1,-7.355138748E-1,2.246983234E0,2.147122731E0,3.193751764E0
1.310135350E1,-3.058119514E0,4.504592028E0,4.788843307E0,7.250963006E0
1.311138450E1,-5.220967162E0,6.347793446E0,8.950762185E0,1.215191851E1
1.312141650E1,-5.697343914E0,5.018390375E0,1.228171161E1,1.443898922E1
1.313144850E1,-4.627334732E0,3.404507400E0,1.575481270E1,1.676952654E1
1.314147950E1,-2.342930195E0,3.475755430E0,1.816230551E1,1.863973013E1
1.315151150E1,-1.560179808E0,2.247841313E0,1.901800576E1,1.921383602E1
1.316154250E1,-9.961866224E-1,1.899422396E0,2.062646486E1,2.073767696E1
1.317157450E1,-1.008095354E0,2.820699462E0,2.250245278E1,2.270094674E1
1.318160550E1,-1.608742688E0,2.862741820E0,2.296541427E1,2.319899990E1
1.319163750E1,-1.671525412E0,2.433086952E0,2.179131442E1,2.199034546E1
1.320166950E1,-1.677176746E0,1.925386373E0,2.012127478E1,2.028264611E1
1.321170050E1,-1.389096125E0,1.203463547E0,1.856075583E1,1.865152996E1
1.322173250E1,-3.943004825E-1,4.903843421E-1,1.614078506E1,1.615304591E1
1.323176350E1,8.941758057E-1,2.791292645E-1,1.218643825E1,1.222238687E1
1.324179550E1,2.004112992E0,5.782982527E-1,7.337663906E0,7.628381830E0
1.325182650E1,2.492723289E0,1.394690595E0,2.622826468E0,3.877892460E0
1.326185850E1,1.357924034E0,2.180307872E0,-1.613556701E0,3.033358753E0
1.327189050E1,-6.146188905E-1,3.280537657E0,-5.019178580E0,6.027589677E0
1.328192150E1,-2.428384328E0,3.520845941E0,-7.618652439E0,8.737120325E0
1.329195350E1,-3.313388192E0,3.204389368E0,-9.246143054E0,1.033139942E1
1.330198450E1,-2.999464632E0,2.294293786E0,-9.192659742E0,9.938086596E0
1.331201650E1,-2.011996208E0,1.110402040E0,-7.267579764E0,7.622259314E0
1.332204750E1,-3.664159150E-1,4.053362980E-1,-5.765092093E0,5.790927817E0
1.333207950E1,1.304458848E0,-5.212846841E-1,-5.548798909E0,5.723855339E0
1.334211150E1,2.850331104E0,-1.288140731E0,-6.222889318E0,6.964771741E0
1.335214250E1,3.611345344E0,-1.394472348E0,-7.206319655E0,8.180306308E0
1.336217450E1,3.262070104E0,-8.290050790E-1,-8.214112415E0,8.876936045E0
1.337220550E1,2.141609391E0,-2.124615043E-1,-8.874741365E0,9.131958441E0
1.338223750E1,9.265823174E-1,1.170817226E-2,-9.322624635E0,9.368565630E0
1.339226850E1,-6.886470526E-2,-5.392068386E-2,-9.398980501E0,9.399387440E0
1.340230050E1,-4.131263607E-1,-2.498600033E-1,-9.091443855E0,9.104254762E0
1.341233150E1,-5.795102343E-2,-4.261190566E-1,-8.633019224E0,8.643723543E0
1.342236350E1,6.531152773E-1,-6.684275271E-1,-8.119065340E0,8.172672569E0
1.343239550E1,1.096105451E0,-1.071232712E0,-7.708967362E0,7.859845067E0
1.344242650E1,1.468446789E0,-1.350394136E0,-7.701525611E0,7.955714740E0
1.345245850E1,1.691889218E0,-1.545929851E0,-7.779424556E0,8.109983641E0
1.346248950E1,1.739256635E0,-1.790221697E0,-7.646854729E0,8.043897974E0
1.347252150E1,1.840000944E0,-1.945028778E0,-7.745721205E0,8.195421735E0
1.348255250E1,1.711684089E0,-2.033952064E0,-7.919122140E0,8.353401636E0
1.349258450E1,1.352446655E0,-2.038153581E0,-7.683850062E0,8.063791525E0
1.350261650E1,1.065398360E0,-1.945564383E0,-7.403753815E0,7.728898045E0
1.351264750E1,5.761617166E-1,-1.889249411E0,-7.203114211E0,7.469007966E0
1.352267950E1,1.154858347E-1,-1.934262446E0,-6.990786023E0,7.254364025E0
1.353271050E1,-1.085703328E-1,-1.954596139E0,-6.655670984E0,6.937592510E0
1.354274250E1,-2.105521326E-1,-2.005532111E0,-6.414861594E0,6.724354283E0
1.355277350E1,-1.426287194E-1,-2.093711339E0,-6.576889109E0,6.903581714E0
1.356280550E1,-1.340693459E-3,-2.077242656E0,-6.906932273E0,7.212534386E0
1.357283750E1,-4.749172507E-1,-2.075867391E0,-6.355776649E0,6.703034286E0
1.358286850E1,-6.383897225E-1,-1.913394903E0,-5.079794326E0,5.465613587E0
1.359290050E1,-4.518813041E-1,-1.575120614E0,-3.612648981E0,3.966917484E0
1.360293150E1,-5.792731662E-1,-1.101088887E0,-1.742786014E0,2.141321375E0
1.361296350E1,-6.464374647E-1,-5.142830819E-2,-6.407630342E-1,9.116487989E-1
1.362299450E1,-5.655316978E-1,1.405929967E0,-8.196422249E-1,1.722869278E0
1.363302650E1,-2.307841931E-1,3.126589532E0,-4.930956960E-1,3.173636213E0
1.364305750E1,-2.161869482E-1,4.942826807E0,2.357079872E0,5.480337505E0
1.365308950E1,-1.515479891E0,5.467149559E0,7.367505755E0,9.298738874E0
1.366312150E1,-3.337930418E0,4.822344344E0,1.376967831E1,1.496665711E1
1.367315250E1,-3.602100897E0,4.567340545E0,1.829927303E1,1.920153962E1
1.368318450E1,-2.992798806E0,4.645704345E0,1.863467283E1,1.943683217E1
1.369321550E1,-2.059654816E0,5.049119833E0,1.719340317E1,1.803743057E1
1.370324750E1,-1.699987173E0,6.376725469E0,1.612933622E1,1.742722212E1
1.371327850E1,-1.404560549E0,7.639508872E0,1.553822364E1,1.737156528E1
1.372331050E1,-4.334451062E-1,8.156686910E0,1.472668741E1,1.684027132E1
1.373334250E1,8.278642872E-1,7.955771903E0,1.329076913E1,1.551206659E1
1.374337350E1,1.708286857E0,7.146808448E0,1.208716890E1,1.414548575E1
1.375340550E1,1.087226528E0,6.684380229E0,1.205944959E1,1.383088301E1
1.376343650E1,-5.181043104E-1,6.040859647E0,1.215752962E1,1.358550491E1
1.377346850E1,-2.194010530E0,5.311842248E0,1.134312942E1,1.271597166E1
1.378349950E1,-2.519044238E0,4.631773646E0,9.201358645E0,1.060490037E1
1.379353150E1,-1.999919515E0,3.879213603E0,7.076965211E0,8.314530224E0
1.380356350E1,-9.722984076E-1,2.813215611E0,4.599253187E0,5.478382621E0
1.381359450E1,2.422508754E-1,1.279023460E0,1.950781415E0,2.345236582E0
1.382362650E1,1.192067762E0,7.619126648E-2,-4.717901963E-1,1.284296168E0
1.383365750E1,9.250477888E-1,-7.259818169E-1,-2.166599806E0,2.465140509E0
1.384368950E1,2.469966218E-1,-1.251599726E0,-3.353357127E0,3.587828483E0
1.385372050E1,-5.303181937E-1,-1.274019413E0,-4.074755604E0,4.302092059E0
1.386375250E1,-7.311475396E-1,-1.119507324E0,-4.448435953E0,4.645046373E0
1.387378350E1,-3.608729008E-1,-1.317035917E0,-4.833066968E0,5.022285254E0
1.388381550E1,2.656012926E-1,-1.719247170E0,-5.521339214E0,5.788915408E0
1.389384750E1,1.257162475E0,-2.036859446E0,-6.265633049E0,6.707265568E0
1.390387850E1,2.248568414E0,-2.298960888E0,-6.996325675E0,7.699990521E0
1.391391050E1,3.149774327E0,-2.466221953E0,-7.754272758E0,8.725369622E0
1.392394150E1,3.810522560E0,-2.537642769E0,-8.444518440E0,9.605706881E0
1.393397350E1,3.700239102E0,-2.880968760E0,-8.722527816E0,9.903244010E0
1.394400450E1,3.265356531E0,-2.970199610E0,-8.544447355E0,9.617287539E0
1.395403650E1,3.081874997E0,-2.918721600E0,-8.356836517E0,9.373025438E0
1.396406850E1,2.804277264E0,-2.796460414E0,-8.086940153E0,9.004596763E0
1.397409950E1,2.548804811E0,-2.530495425E0,-7.890692393E0,8.669650483E0
1.398413150E1,2.470370260E0,-2.593672543E0,-7.904351488E0,8.678055020E0
1.399416250E1,2.772902275E0,-2.736249003E0,-8.005884295E0,8.903383008E0
1.400419450E1,3.236317504E0,-2.588903262E0,-7.961202797E0,8.975350748E0
1.401422550E1,3.422903325E0,-2.676020343E0,-7.721120215E0,8.859630321E0
1.402425750E1,3.114436972E0,-3.077556828E0,-8.066099507E0,9.177855683E0
1.403428950E1,2.055087410E0,-3.381562926E0,-8.601830760E0,9.468360181E0
1.404432050E1,1.067304845E0,-3.088785821E0,-8.968346516E0,9.545207002E0
1.405435250E1,7.757610641E-1,-2.606816500E0,-8.864249706E0,9.272120595E0
1.406438350E1,8.061727251E-1,-2.549444789E0,-8.595099446E0,9.001406428E0
1.407441550E1,1.123808536E0,-2.923014626E0,-8.316462663E0,8.886535396E0
1.408444687E1,1.623412914E0,-3.368869497E0,-8.293459716E0,9.097594476E0
1.409447887E1,1.706488692E0,-3.790221319E0,-8.377439182E0,9.351971372E0
1.410451087E1,1.562623652E0,-3.988609453E0,-8.242753247E0,9.289444501E0
1.411454187E1,1.497204272E0,-4.006064853E0,-7.714363757E0,8.820520643E0
1.412457387E1,1.240529924E0,-3.896929204E0,-6.869743397E0,7.994894999E0
1.413460487E1,9.680902395E-1,-3.491506660E0,-6.232708547E0,7.209332375E0
1.414463688E1,3.715170260E-1,-3.133698869E0,-5.357922986E0,6.218153442E0
1.415466787E1,-3.582191420E-1,-2.689583837E0,-3.781074520E0,4.653891565E0
1.416469987E1,-7.213603970E-1,-2.065643242E0,-2.153159396E0,3.069745627E0
1.417473087E1,-1.239316480E0,-1.162304850E0,-3.750871897E-1,1.739985144E0
1.418476287E1,-1.481336829E0,7.084398776E-2,1.650260843E0,2.218724526E0
1.419479487E1,-1.447700429E0,9.387222335E-1,3.504250374E0,3.905996242E0
1.420482588E1,-1.849101259E0,1.956675408E0,5.032888547E0,5.707689659E0
1.421485788E1,-2.704567620E0,3.533582054E0,6.880432692E0,8.193975968E0
1.422488887E1,-3.909287002E0,4.614147799E0,9.521373834E0,1.127960303E1
1.423492087E1,-3.782243671E0,4.867617873E0,1.252506571E1,1.395981167E1
1.424495187E1,-1.407282135E0,4.689880351E0,1.515399609E1,1.592542050E1
1.425498387E1,1.466672890E0,4.867603840E0,1.650347733E1,1.726874229E1
1.426501587E1,3.293806159E0,5.568146760E0,1.699770738E1,1.818723381E1
1.427504688E1,2.628244498E0,6.156038101E0,1.848357259E1,1.965825348E1
1.428507888E1,9.471148152E-1,6.280750440E0,2.003428692E1,2.101707651E1
1.429510987E1,-8.206885841E-1,6.047871044E0,2.114555026E1,2.200873848E1
1.430514187E1,-2.108810312E0,5.373963068E0,2.174111022E1,2.249449785E1
1.431517287E1,-2.971622822E0,4.369225477E0,2.187485709E1,2.250400067E1
1.432520487E1,-4.051952047E0,3.536912043E0,2.063609171E1,2.132548577E1
1.433523687E1,-4.855797727E0,3.013566362E0,1.785272819E1,1.874513957E1
1.434526788E1,-5.099217022E0,2.777346159E0,1.430049088E1,1.543436767E1
1.435529987E1,-3.879238746E0,2.855859354E0,1.013799956E1,1.122423543E1
1.436533087E1,-1.830564708E0,3.096409129E0,6.018993400E0,7.011918296E0
1.437536287E1,-2.522518069E-2,3.124593585E0,2.184848966E0,3.812779352E0
1.438539387E1,1.559105675E0,3.131790631E0,-9.813241696E-1,3.633444672E0
1.439542587E1,1.996798856E0,2.861370648E0,-3.348521479E0,4.836035954E0
1.440545787E1,1.492838449E0,2.254824642E0,-4.830771351E0,5.536167686E0
1.441548888E1,3.174671187E-1,1.419348450E0,-4.876838640E0,5.089095255E0
1.442552087E1,-3.813989666E-1,6.453991453E-1,-3.716427119E0,3.791284183E0
1.443555187E1,-3.229425976E-1,-3.297470024E-1,-2.836201308E0,2.873510547E0
1.444558387E1,4.326477653E-1,-1.335749053E0,-2.368312374E0,2.753236845E0
1.445561487E1,1.874371755E0,-2.078733404E0,-2.537374089E0,3.777918648E0
1.446564687E1,3.233579545E0,-2.779500858E0,-3.438672681E0,5.477785273E0
1.447567787E1,4.311525153E0,-3.476249812E0,-4.709646864E0,7.270098726E0
1.448570988E1,4.934363548E0,-3.511249491E0,-6.197059827E0,8.664892793E0
1.449574187E1,5.334654576E0,-3.200041963E0,-7.764214194E0,9.948961255E0
1.450577287E1,5.107933466E0,-3.034857536E0,-9.083709742E0,1.085426770E1
1.451580487E1,4.604378563E0,-2.871452417E0,-9.851718714E0,1.124730646E1
1.452583587E1,4.094242035E0,-2.732727518E0,-1.041374373E1,1.151853619E1
1.453586787E1,3.465590338E0,-2.651690664E0,-1.080004938E1,1.164829801E1
1.454589887E1,2.887627569E0,-2.516275873E0,-1.082072631E1,1.147859552E1
1.455593088E1,2.432452090E0,-2.471482986E0,-1.022690180E1,1.079882270E1
1.456596287E1,2.102851414E0,-2.602698890E0,-8.995236692E0,9.597411564E0
1.457599387E1,2.031607623E0,-2.771619103E0,-7.993212794E0,8.700617953E0
1.458602587E1,2.253838363E0,-2.969084838E0,-7.385035123E0,8.272484265E0
1.459605687E1,2.596577148E0,-3.134382116E0,-7.090962861E0,8.176082095E0
1.460608887E1,2.806910850E0,-3.174674402E0,-7.171187829E0,8.329660315E0
1.461611987E1,2.748393670E0,-3.101369906E0,-7.529571862E0,8.594568953E0
1.462615188E1,2.356138763E0,-3.018022525E0,-7.840606313E0,8.725534779E0
1.463618387E1,1.726981867E0,-2.920227843E0,-8.095173032E0,8.777358569E0
1.464621487E1,1.313194004E0,-2.731945160E0,-7.982531101E0,8.538665330E0
1.465624687E1,8.796212089E-1,-2.690007176E0,-7.730353553E0,8.232146630E0
1.466627787E1,4.747114652E-1,-2.743098432E0,-7.478533271E0,7.979874677E0
1.467630987E1,4.260091290E-1,-2.775046741E0,-7.100640587E0,7.635539597E0
1.468634087E1,3.886974612E-1,-2.757275006E0,-6.520788583E0,7.090439685E0
1.469637288E1,2.609423773E-1,-2.611460651E0,-5.426214956E0,6.027572181E0
1.470640487E1,1.673859767E-1,-2.565064164E0,-4.276828360E0,4.989873050E0
1.471643587E1,-2.103779952E-1,-2.638441165E0,-3.417112827E0,4.322301558E0
1.472646787E1,-8.145741507E-1,-2.309762449E0,-2.783100404E0,3.707314591E0
1.473649887E1,-1.636226648E0,-1.572033868E0,-2.268851236E0,3.208771425E0
1.474653087E1,-2.377202188E0,-2.748378468E-1,-1.107835697E0,2.637029772E0
1.475656187E1,-2.766827310E0,1.356530058E0,1.803488299E0,3.570444959E0
1.476659388E1,-2.662341952E0,2.609746539E0,4.731503756E0,6.023783650E0
1.477662487E1,-2.104766962E0,3.590846468E0,7.184857450E0,8.303396829E0
1.478665687E1,-1.782776730E0,4.091269018E0,8.963157113E0,1.001273991E1
1.479668887E1,-1.958280762E0,3.925126817E0,1.078806610E1,1.164576551E1
1.480671987E1,-2.194229946E0,3.129795853E0,1.324575609E1,1.378623667E1
1.481675187E1,-1.822547737E0,2.259890378E0,1.580490112E1,1.606933988E1
1.482678287E1,-1.207928700E0,1.916030535E0,1.722637444E1,1.737464363E1
1.483681488E1,-1.326398771E0,2.274790545E0,1.759790419E1,1.779382583E1
1.484684587E1,-2.148890929E0,2.704541892E0,1.758545897E1,1.792151351E1
1.485687787E1,-2.298297229E0,3.334211589E0,1.690655982E1,1.738478938E1
1.486690987E1,-1.300605972E0,3.947808166E0,1.510281892E1,1.566435139E1
1.487694087E1,2.493472025E-1,3.802083273E0,1.321155923E1,1.375002940E1
1.488697287E1,1.285155874E0,2.977286143E0,1.206084123E1,1.248918530E1
1.489700387E1,1.665835925E0,2.184317162E0,1.108720615E1,1.142245118E1
1.490703588E1,1.694318005E0,1.727788491E0,9.430084764E0,9.735628651E0
1.491706687E1,1.667691978E0,1.437196198E0,6.607463615E0,6.964574995E0
1.492709887E1,1.214560246E0,1.459983236E0,3.005468261E0,3.555214074E0
1.493713087E1,-3.604767519E-1,1.812250936E0,-1.099469501E-1,1.851022765E0
1.494716187E1,-1.926144757E0,2.098849872E0,-2.396343926E0,3.722588967E0
1.495719387E1,-2.938628154E0,2.408008098E0,-3.580179977E0,5.220318678E0
1.496722487E1,-3.009986989E0,2.947139361E0,-3.765410414E0,5.650129881E0
1.497725688E1,-2.364093315E0,3.357383519E0,-2.938333454E0,5.049234079E0
1.498728787E1,-1.307878592E0,3.494354254E0,-1.375359846E0,3.976515154E0
1.499731987E1,9.135748208E-2,3.243182135E0,-7.092877239E-1,3.321094041E0
1.500735087E1,1.736436523E0,3.172755931E0,-1.232422906E0,3.821054594E0
1.501738287E1,2.950780130E0,3.134064028E0,-2.427820657E0,4.942041466E0
1.502741487E1,3.873516953E0,3.034338011E0,-4.432795236E0,6.622764857E0
1.503744588E1,4.261846039E0,2.842491742E0,-6.883910615E0,8.580869206E0
1.504747788E1,4.157611527E0,2.526138664E0,-9.230283067E0,1.043385047E1
1.505750887E1,3.720624543E0,2.350702314E0,-1.081329333E1,1.167459468E1
1.506754087E1,3.130995117E0,2.308818124E0,-1.150932132E1,1.214900197E1
1.507757187E1,2.624779438E0,2.151881049E0,-1.134545895E1,1.184227588E1
1.508760383E1,2.243431050E0,1.655656069E0,-1.032103495E1,1.069102158E1
1.509763583E1,2.194939506E0,1.156357354E0,-8.664990630E0,9.013156183E0
1.510766683E1,2.437038208E0,6.738514774E-1,-6.993945274E0,7.436968571E0
1.511769883E1,2.806578729E0,7.775492158E-2,-5.924629279E0,6.556230783E0
1.512772983E1,3.228450660E0,-4.382274343E-1,-5.188965350E0,6.127013820E0
1.513776183E1,3.399966452E0,-7.604018904E-1,-4.716910275E0,5.864062197E0
1.514779283E1,3.286796809E0,-9.875032148E-1,-4.765297739E0,5.872500183E0
1.515782483E1,3.084990978E0,-1.174222937E0,-5.249626120E0,6.201172731E0
1.516785683E1,2.878154203E0,-1.401327623E0,-5.900412451E0,6.712850201E0
1.517788783E1,2.709205631E0,-1.613747613E0,-6.721631670E0,7.424574656E0
1.518791983E1,2.721950807E0,-1.742427141E0,-7.248111459E0,7.936005813E0
1.519795083E1,2.834452113E0,-1.773551724E0,-7.493251297E0,8.205389662E0
1.520798283E1,2.710701349E0,-1.805164257E0,-7.366150956E0,8.053986572E0
1.521801383E1,2.384812632E0,-1.873104371E0,-6.992972297E0,7.622172448E0
1.522804583E1,1.819145680E0,-1.834243922E0,-6.140405570E0,6.661705663E0
1.523807783E1,1.094371898E0,-1.821637179E0,-5.242471467E0,5.656811729E0
1.524810883E1,5.766538695E-1,-1.845992294E0,-4.701495261E0,5.083726480E0
1.525814083E1,2.561343580E-1,-1.934977122E0,-4.644545719E0,5.038010144E0
1.526817183E1,-5.185632437E-2,-2.019066077E0,-5.093806593E0,5.479615179E0
1.527820383E1,-3.438563338E-1,-1.796523826E0,-5.314496300E0,5.620463144E0
1.528823483E1,-4.800391558E-1,-1.325572413E0,-4.239737132E0,4.467991804E0
1.529826683E1,-1.145219139E0,-1.107093101E0,-1.606907247E0,2.262594288E0
1.530829783E1,-1.957533780E0,-9.022816546E-1,2.939721583E0,3.645272784E0
1.531832983E1,-2.385335811E0,-4.671904841E-1,7.012487964E0,7.421797715E0
1.532836183E1,-2.773260417E0,4.356848091E-1,8.152821901E0,8.622603988E0
1.533839283E1,-3.088699282E0,2.284147259E0,5.709393856E0,6.881465699E0
1.534842483E1,-3.930139343E0,4.065078462E0,2.935365407E0,6.370810641E0
1.535845583E1,-6.523661320E0,4.103099104E0,4.974392416E0,9.172685495E0
1.536848783E1,-8.319832998E0,2.677086583E0,1.279540588E1,1.549544531E1
1.537851883E1,-7.808751851E0,1.054470499E0,2.004977269E1,2.154256016E1
1.538855083E1,-5.185322535E0,6.364349252E-1,2.357709852E1,2.414895844E1
1.539858283E1,-1.805489508E0,2.593615825E-1,2.344195299E1,2.351280972E1
1.540861383E1,5.658093309E-1,-9.149340060E-1,2.160191842E1,2.162868752E1
1.541864583E1,3.745268218E0,-8.474508516E-1,1.950905493E1,1.988337072E1
1.542867683E1,5.809045029E0,4.107303545E-2,1.664428413E1,1.762892184E1
1.543870883E1,6.285665610E0,2.324861422E0,1.269685457E1,1.435704317E1
1.544873983E1,3.753519808E0,4.578267237E0,8.447774754E0,1.031573265E1
1.545877183E1,-4.898358732E-2,5.859156836E0,3.715323164E0,6.937992825E0
1.546880383E1,-3.364709496E0,6.073521609E0,-1.121901759E0,7.033320573E0
1.547883483E1,-6.626015661E0,5.283938166E0,-3.317409030E0,9.101059760E0
1.548886683E1,-7.957823691E0,5.242667348E0,6.665013081E-1,9.552839516E0
1.549889783E1,-6.081603631E0,2.880710606E0,5.466487069E0,8.669883344E0
1.550892983E1,-3.482691397E0,2.601070295E-1,7.738177713E0,8.489769688E0
1.551896083E1,5.007730901E-2,-6.132354393E-1,7.628507336E0,7.653279664E0
1.552899283E1,2.234727177E0,-1.369319673E0,6.159680917E0,6.694080289E0
1.553902483E1,3.617876977E0,-2.143482108E0,3.929991993E0,5.755726403E0
1.554905583E1,4.451205195E0,-2.041129229E0,9.051747108E-1,4.979837093E0
1.555908783E1,4.760104534E0,-1.661871805E0,-2.617886156E0,5.680998240E0
1.556911883E1,4.680729751E0,-1.378860867E0,-6.015171075E0,7.745500071E0
1.557915083E1,4.543491507E0,-7.760244812E-1,-9.075348224E0,1.017877569E1
1.558918183E1,4.471682729E0,1.778049110E-1,-1.139084387E1,1.223841840E1
1.559921383E1,3.638562964E0,3.282758430E-1,-1.238316431E1,1.291083513E1
1.560924483E1,2.167790884E0,-1.823875201E-1,-1.245033362E1,1.263896316E1
1.561927683E1,1.940154978E0,1.383411755E-1,-1.200512194E1,1.216167309E1
1.562930883E1,2.005943755E0,4.239254737E-1,-1.121913921E1,1.140493787E1
1.563933983E1,1.827293191E0,1.060420333E-1,-1.021224985E1,1.037498396E1
1.564937183E1,1.714757971E0,-1.904730499E-1,-9.465856276E0,9.621803880E0
1.565940283E1,1.762546387E0,-5.417899923E-1,-8.668774948E0,8.862717713E0
1.566943483E1,1.927483184E0,-1.006310930E0,-8.032438256E0,8.321533359E0
1.567946583E1,2.352148038E0,-1.375163234E0,-7.652638210E0,8.123210319E0
1.568949783E1,2.862747082E0,-1.675612762E0,-7.481728774E0,8.184086048E0
1.569952983E1,3.214399801E0,-1.929556315E0,-7.580121626E0,8.456583088E0
1.570956083E1,3.315178317E0,-2.020028236E0,-7.841188111E0,8.749580123E0
1.571959283E1,3.227050252E0,-1.945922379E0,-7.953440033E0,8.801004238E0
1.572962383E1,2.842217800E0,-1.771482248E0,-7.811933906E0,8.499568385E0
1.573965583E1,2.410413788E0,-1.575454636E0,-7.560750970E0,8.090556667E0
1.574968683E1,1.989590847E0,-1.437989958E0,-7.043616786E0,7.459143670E0
1.575971883E1,1.548379542E0,-1.424594279E0,-6.488655794E0,6.821261033E0
1.576975083E1,1.269322929E0,-1.427394218E0,-5.879261903E0,6.181776078E0
1.577978183E1,1.357487247E0,-1.508101582E0,-5.536388778E0,5.896502583E0
1.578981383E1,1.407132739E0,-1.674294654E0,-5.303863723E0,5.737094693E0
1.579984483E1,1.147113783E0,-1.766966444E0,-4.909559659E0,5.342454163E0
1.580987683E1,7.198144662E-1,-1.805935797E0,-4.009928108E0,4.456350570E0
1.581990783E1,-1.070682196E-1,-1.786685740E0,-2.786592945E0,3.311919350E0
1.582993983E1,-1.298901070E0,-1.586731868E0,-1.646115167E0,2.629554554E0
1.583997183E1,-2.209174699E0,-1.078663353E0,-4.529902285E-1,2.499833520E0
1.585000283E1,-2.334449978E0,-3.705566208E-1,1.403001389E0,2.748705479E0
1.586003483E1,-1.908074375E0,1.103736506E-1,3.411021783E0,3.909987182E0
1.587006583E1,-9.311221687E-1,9.073568916E-1,5.827184846E0,5.970457960E0
1.588009783E1,-2.300908595E-2,2.234927006E0,7.271367590E0,7.607116061E0
1.589012883E1,-8.754089478E-1,3.868677505E0,8.361159949E0,9.254296416E0
1.590016083E1,-3.408359545E0,5.367866176E0,1.049357459E1,1.226971922E1
1.591019183E1,-6.266330622E0,5.688304703E0,1.478485669E1,1.703571827E1
1.592022383E1,-8.340449111E0,4.822923219E0,2.025529296E1,2.242990354E1
1.593025583E1,-8.336560128E0,3.437875705E0,2.393140470E1,2.557399764E1
1.594028683E1,-5.622774957E0,2.411592733E0,2.509844112E1,2.583337230E1
1.595031883E1,-2.957038697E0,1.898757714E0,2.483885983E1,2.508621765E1
1.596034983E1,-1.862972316E0,1.593685377E0,2.422790297E1,2.435162790E1
1.597038183E1,-1.039693927E0,1.833637420E0,2.275749196E1,2.285490385E1
1.598041283E1,3.986719340E-1,2.267558124E0,2.007030343E1,2.020192662E1
1.599044483E1,2.468924829E0,2.713697462E0,1.653480320E1,1.693692595E1
1.600047683E1,4.290637144E0,3.163778701E0,1.241418613E1,1.351040636E1
1.601050783E1,4.854917136E0,3.519221585E0,8.147680444E0,1.011631542E1
1.602053983E1,4.385997630E0,3.474961086E0,4.108402237E0,6.941995297E0
1.603057083E1,3.588963372E0,3.093581123E0,2.894968164E-1,4.747073905E0
1.604060283E1,2.404512340E0,2.355450253E0,-3.026553320E0,4.526571604E0
1.605063383E1,1.128478561E0,1.730898478E0,-5.584894940E0,5.954874046E0
1.606066583E1,-2.478430063E-1,1.047248018E0,-7.120684258E0,7.201548366E0
1.607069783E1,-1.631065457E0,3.359630312E-1,-7.734030282E0,7.911287512E0
1.608072883E1,-2.796463630E0,-6.906631726E-1,-7.595374088E0,8.123234085E0
1.609076071E1,-2.917769089E0,-1.713825632E0,-6.995549165E0,7.770989826E0
1.610079171E1,-2.286742254E0,-2.380595035E0,-5.755175216E0,6.634641258E0
1.611082371E1,-1.110095646E0,-2.378650836E0,-4.437159598E0,5.155451235E0
1.612085471E1,2.025870189E-2,-2.024672679E0,-3.760847831E0,4.271262844E0
1.613088671E1,8.385167447E-1,-1.412887130E0,-3.838169072E0,4.175033198E0
1.614091871E1,1.409503639E0,-6.912199737E-1,-5.126208939E0,5.361203563E0
1.615094971E1,1.760005333E0,-2.463145441E-1,-7.094658886E0,7.313854957E0
1.616098171E1,1.729897289E0,-2.614105200E-1,-9.432211397E0,9.593096055E0
1.617101271E1,1.543408532E0,-2.672912110E-1,-1.186755800E1,1.197048401E1
1.618104471E1,1.477869723E0,3.957585588E-2,-1.353006292E1,1.361059395E1
1.619107571E1,1.457338979E0,1.389680701E-1,-1.414784581E1,1.422338532E1
1.620110771E1,1.451782078E0,-2.021397069E-1,-1.393398974E1,1.401087441E1
1.621113871E1,1.420647409E0,-7.927481758E-1,-1.266410548E1,1.276817357E1
1.622117071E1,1.363752685E0,-1.330560527E0,-1.044249916E1,1.061489527E1
1.623120271E1,1.498242153E0,-1.867597171E0,-8.261778333E0,8.601722500E0
1.624123371E1,1.892368023E0,-2.385320462E0,-6.527439206E0,7.202657359E0
1.625126571E1,2.280262223E0,-2.774936229E0,-5.191367387E0,6.312698490E0
1.626129671E1,2.601800173E0,-2.905227981E0,-4.466870470E0,5.929809909E0
1.627132871E1,2.872014334E0,-2.858814830E0,-4.259428216E0,5.879117050E0
1.628135971E1,2.896800097E0,-2.735063188E0,-4.622399974E0,6.102344055E0
1.629139171E1,2.878248343E0,-2.435687793E0,-5.373059088E0,6.564042391E0
1.630142371E1,2.870265432E0,-2.129041824E0,-6.250012212E0,7.199576057E0
1.631145471E1,2.880218855E0,-1.881467351E0,-7.030653509E0,7.827238901E0
1.632148671E1,2.923496144E0,-1.617277577E0,-7.719621574E0,8.411597572E0
1.633151771E1,2.874089511E0,-1.421241193E0,-8.310097969E0,8.907190651E0
1.634154971E1,2.679350333E0,-1.210349886E0,-8.581384217E0,9.071053970E0
1.635158071E1,2.417126830E0,-9.967398421E-1,-8.220198197E0,8.625986948E0
1.636161271E1,2.359119381E0,-7.697061992E-1,-7.700868968E0,8.090814221E0
1.637164471E1,2.385640305E0,-7.407879172E-1,-7.394247411E0,7.804802444E0
1.638167571E1,2.352236624E0,-7.829762359E-1,-7.109660502E0,7.529498083E0
1.639170771E1,2.244183148E0,-7.008810358E-1,-6.968092394E0,7.354039968E0
1.640173871E1,2.006906061E0,-5.347686557E-1,-6.791925142E0,7.102386683E0
1.641177071E1,1.269368976E0,-3.406451891E-1,-6.464276998E0,6.596530440E0
1.642180171E1,5.537082258E-1,-8.493080735E-5,-5.460943324E0,5.488942958E0
1.643183371E1,1.026364687E-1,2.629966503E-1,-3.863094583E0,3.873396603E0
1.644186571E1,-1.095695123E-1,8.925239673E-1,-2.173193126E0,2.351887088E0
1.645189671E1,3.732628584E-1,2.339887012E0,-2.587761301E-1,2.383560672E0
1.646192871E1,1.089317784E0,4.132151580E0,1.543538048E0,4.543544830E0
1.647195971E1,1.308862971E0,6.238837599E0,4.760138741E0,7.955824136E0
1.648199171E1,1.009093328E0,7.381692270E0,1.033246041E1,1.273842174E1
1.649202271E1,-9.484397212E-1,6.061536571E0,1.677473902E1,1.786151261E1
1.650205471E1,-3.215858096E0,4.507641935E0,2.365383036E1,2.429329680E1
1.651208671E1,-5.085443321E0,3.205575475E0,2.853240328E1,2.915879773E1
1.652211771E1,-5.145931013E0,1.581842573E0,3.013086364E1,3.060803449E1
1.653214971E1,-2.754351983E0,6.865625203E-1,2.886848954E1,2.900771469E1
1.654218071E1,-5.948542053E-1,2.802845281E-1,2.685285841E1,2.686090869E1
1.655221271E1,3.542813711E-1,2.986538485E-2,2.468339406E1,2.468595449E1
1.656224371E1,1.499940185E0,3.862703551E-1,2.101139876E1,2.106841008E1
1.657227571E1,3.050828913E0,7.596068884E-1,1.598421651E1,1.629047995E1
1.658230671E1,4.775889093E0,1.174255754E0,1.047623292E1,1.157322122E1
1.659233871E1,6.106534404E0,1.773824497E0,5.357763357E0,8.315157482E0
