"Time (s)","Linear Acceleration x (m/s^2)","Linear Acceleration y (m/s^2)","Linear Acceleration z (m/s^2)","Absolute acceleration (m/s^2)"
1.586124999E-3,-8.555224943E-1,-2.845354539E-1,-2.757800671E0,2.901438213E0
1.161812502E-2,-6.471791840E-1,-2.394648233E-1,-2.037772781E0,2.151441890E0
2.165012504E-2,-3.813986742E-1,4.369916618E-2,-7.200916243E-1,8.160309511E-1
3.168312495E-2,-1.189031303E-2,2.397744334E-1,2.795530415E-1,3.684875323E-1
4.171512497E-2,4.439808387E-1,3.286854404E-1,7.909318113E-1,9.647415374E-1
5.174712499E-2,7.042830920E-1,3.791410643E-1,6.802755940E-1,1.050017859E0
6.177912501E-2,6.562026072E-1,4.027898356E-1,2.824719715E-1,8.201414073E-1
7.181212504E-2,4.198827088E-1,3.898622265E-1,-6.290083766E-2,5.764117974E-1
8.184412506E-2,8.396133900E-2,2.117481440E-1,-3.593751365E-1,4.254847491E-1
9.187612496E-2,-1.617339849E-1,-7.189210117E-2,-4.418834424E-1,4.760119040E-1
1.019091250E-1,-3.279773426E-1,-2.572868443E-1,-2.723358232E-1,4.979281656E-1
1.119411250E-1,-3.346221185E-1,-1.675586888E-1,-2.907118678E-2,3.753571769E-1
1.219731250E-1,-9.435593426E-2,-8.191364408E-2,1.305858672E-1,1.807361506E-1
1.320051251E-1,1.596050137E-1,-5.571607143E-2,4.171169758E-2,1.741203800E-1
1.420381250E-1,2.504391700E-1,9.967836231E-2,-1.953496277E-2,2.702538965E-1
1.520701250E-1,2.702957296E-1,3.047098097E-1,-2.799705327E-2,4.082789299E-1
1.621021250E-1,3.082479599E-1,3.446036080E-1,-9.219889641E-2,4.714542267E-1
1.721351250E-1,2.488303086E-1,2.892927486E-1,-1.785622716E-1,4.212971655E-1
1.821671251E-1,1.206371221E-1,2.769638944E-1,-2.337056082E-1,3.819432227E-1
1.921991250E-1,5.214780807E-2,2.028296784E-1,-3.324492931E-1,3.929145006E-1
2.022321250E-1,-1.234274134E-1,1.475603342E-1,-5.492038232E-1,5.819220034E-1
2.122641250E-1,-2.650171557E-1,2.996548918E-1,-7.623582226E-1,8.609397230E-1
2.222961250E-1,-3.117475185E-1,5.748578972E-1,-9.634866536E-1,1.164454657E0
2.323281250E-1,-4.146181682E-1,8.638302183E-1,-9.968350786E-1,1.382675322E0
2.423611250E-1,-4.608526871E-1,1.218925778E0,-6.730238771E-1,1.466671875E0
2.523931250E-1,-7.756448507E-1,1.545812615E0,-4.364969873E-1,1.783729574E0
2.624251250E-1,-1.194765960E0,1.836021914E0,-4.918502390E-2,2.191086793E0
2.724581250E-1,-1.307671893E0,2.117181186E0,4.697483486E-1,2.532414947E0
2.824901250E-1,-1.451490594E0,2.411803087E0,7.633925951E-1,2.916571159E0
2.925221251E-1,-1.911378783E0,2.971899396E0,5.069728929E-1,3.569674549E0
3.025541250E-1,-1.395836211E0,3.359315147E0,3.786569148E-1,3.657422322E0
3.125871250E-1,-9.757219523E-1,3.533872953E0,1.309648837E0,3.893002884E0
3.226191667E-1,6.082235715E-1,3.209271793E0,2.785591317E0,4.292887180E0
3.326511667E-1,3.044967664E0,2.313163190E0,4.102958479E0,5.608638007E0
3.426841666E-1,2.824723516E0,2.420587651E0,5.822752656E0,6.909613304E0
3.527161666E-1,1.739601620E0,3.003482254E0,9.147030995E0,9.783419416E0
3.627481667E-1,2.879080987E0,4.041350461E0,1.217337440E1,1.314582311E1
3.727801667E-1,3.520139013E0,4.224947770E0,1.145242908E1,1.270431794E1
3.828131667E-1,3.644602845E0,1.995057994E0,8.494810926E0,9.456489781E0
3.928451666E-1,3.815690621E0,5.586597576E-1,3.885909249E0,5.474658559E0
4.028771666E-1,4.126865697E0,-5.327165754E-1,9.785683769E-1,4.274623200E0
4.129101667E-1,3.499035827E0,-1.871917240E0,-7.115763241E-1,4.031583651E0
4.229421667E-1,2.407886914E0,-2.791777087E0,-1.258486285E0,3.895603473E0
4.329741667E-1,2.321540203E0,-2.349130437E0,-1.144460317E0,3.495390127E0
4.430061667E-1,2.004377286E0,-2.181425129E0,-3.600200844E-1,2.984251725E0
4.530391666E-1,1.814820787E-1,-2.730017626E0,-2.426968718E-1,2.746786077E0
4.630711667E-1,-2.126327985E0,-3.696627277E0,-8.218963265E-1,4.343021701E0
4.731031667E-1,-3.728435838E0,-5.490440188E0,-1.880958644E0,6.898128201E0
4.831361667E-1,-5.950321360E0,-4.385179020E0,-5.424288883E0,9.168371132E0
4.931681667E-1,-9.898153793E0,4.653579082E0,6.509408147E0,1.272798653E1
5.032001666E-1,-7.954999486E0,5.576809995E0,1.218892799E1,1.558694300E1
5.132321666E-1,-1.141883961E0,-4.094553691E-1,9.974535971E0,1.004803068E1
5.232651667E-1,2.923213724E0,-1.714521743E0,1.079058274E1,1.131023604E1
5.332971667E-1,5.367241693E0,-1.147139511E0,1.394672732E1,1.498780889E1
5.433291667E-1,8.896767241E0,-6.632233590E-2,1.519711229E1,1.760991448E1
5.533621666E-1,8.743920439E0,1.077068818E-1,1.587277443E1,1.812216084E1
5.633941666E-1,8.781338527E0,-3.811916828E-1,1.775415582E1,1.981078652E1
5.734261667E-1,8.210905802E0,-2.025996489E0,1.679829277E1,1.880708047E1
5.834581667E-1,6.444426870E0,-3.731533985E0,1.404189309E1,1.589433060E1
5.934911667E-1,5.844841098E0,-4.579697759E0,1.103201194E1,1.329816102E1
6.035231666E-1,6.294534667E0,-5.339186752E0,8.609374838E0,1.192683600E1
6.135551666E-1,6.475413020E0,-6.058235233E0,6.785121907E0,1.116561988E1
6.235881667E-1,5.905224125E0,-7.096759790E0,4.998647836E0,1.049867381E1
6.336201667E-1,4.561732481E0,-8.018740568E0,3.644163135E0,9.919149584E0
6.436521667E-1,3.345736451E0,-9.055900970E0,3.031862592E0,1.011906545E1
6.536841667E-1,2.352187946E0,-1.015096986E1,2.761884951E0,1.077974887E1
6.637171666E-1,1.400325703E0,-1.099799868E1,2.562862395E0,1.137915422E1
6.737491667E-1,1.079021495E0,-1.140286925E1,2.150212253E0,1.165388893E1
6.837811667E-1,1.213103413E0,-1.154359185E1,1.569210687E0,1.171275181E1
6.938141667E-1,1.907706147E0,-1.129755973E1,1.204252117E0,1.152060857E1
7.038461667E-1,2.695237802E0,-1.088012583E1,9.921350136E-1,1.125281195E1
7.138781666E-1,3.032283007E0,-1.058128049E1,8.672116631E-1,1.104129943E1
7.239101666E-1,2.974431240E0,-1.039331589E1,6.263338602E-1,1.082869108E1
7.339431667E-1,2.793944065E0,-1.016115337E1,4.974588883E-1,1.055000600E1
7.439751667E-1,2.469680874E0,-9.725034694E0,9.512414145E-1,1.007871438E1
7.540071667E-1,1.984334493E0,-9.212479464E0,1.801521295E0,9.594417139E0
7.640401666E-1,2.055629593E0,-8.774330054E0,2.702783049E0,9.408481128E0
7.740721666E-1,1.945991376E0,-8.337300385E0,3.358668737E0,9.196636115E0
7.841041667E-1,2.156501665E0,-7.957068815E0,3.478206875E0,8.947813511E0
7.941361667E-1,2.435562370E0,-7.640789997E0,3.005361257E0,8.564218127E0
8.041691667E-1,2.856290002E0,-7.359792693E0,2.159196646E0,8.184562983E0
8.142011666E-1,3.745646240E0,-6.982657809E0,1.354673567E0,8.038813115E0
8.242331666E-1,4.495562173E0,-6.398257840E0,8.664181960E-1,7.867557634E0
8.342661667E-1,4.681719393E0,-5.682345806E0,7.938590006E-1,7.405252355E0
8.442981667E-1,3.909263613E0,-4.892957075E0,1.165730002E0,6.370423641E0
8.543301667E-1,2.644988585E0,-4.579708284E0,1.887253317E0,5.615284290E0
8.643621667E-1,1.649684892E0,-4.400152862E0,2.909271623E0,5.526903910E0
8.743951666E-1,8.320166874E-1,-4.227082588E0,3.428091559E0,5.505659880E0
8.844271667E-1,5.821955681E-2,-4.073207553E0,2.968726112E0,5.040609488E0
8.944591667E-1,-7.621588326E-1,-3.655524275E0,1.987619312E0,4.230174268E0
9.044921667E-1,-2.363501869E0,-3.091010687E0,9.548408143E-1,4.006520826E0
9.145241667E-1,-4.358567757E0,-2.686592402E0,9.136859179E-3,5.120056162E0
9.245561666E-1,-6.073601716E0,-2.267118998E0,-5.996540384E-1,6.510610672E0
9.345881667E-1,-7.636689929E0,-1.794240050E0,-1.005500067E0,7.908815387E0
9.446211667E-1,-9.219026592E0,-1.594260012E0,-1.846885164E0,9.536409235E0
9.546531667E-1,-1.078365262E1,-1.472177166E0,-3.173041860E0,1.133678368E1
9.646851667E-1,-1.240326119E1,-1.092125690E0,-4.169768765E0,1.313090242E1
9.747181666E-1,-1.340122186E1,-7.067307365E-1,-4.272845821E0,1.408365816E1
9.847501667E-1,-1.352767375E1,-4.559129593E-1,-3.640885770E0,1.401648539E1
9.947821667E-1,-1.322924121E1,-4.491165943E-1,-3.036980368E0,1.358078711E1
1.004814167E0,-1.289069211E1,-2.956301071E-1,-3.005615318E0,1.323975315E1
1.014847167E0,-1.253603275E1,1.086120307E-3,-3.376772302E0,1.298286214E1
1.024879167E0,-1.196834412E1,7.318667471E-2,-4.325696465E0,1.272628254E1
1.034911167E0,-1.118397172E1,-3.123144060E-3,-5.020622842E0,1.225919601E1
1.044944167E0,-1.004042240E1,2.514975160E-2,-4.556320006E0,1.102591340E1
1.054976167E0,-8.625827733E0,-1.281709671E-3,-3.388873115E0,9.267651629E0
1.065008167E0,-7.006726118E0,-3.812797565E-1,-2.144585916E0,7.337495069E0
1.075040167E0,-4.703342396E0,-6.448115002E-1,-3.659690416E-1,4.761422571E0
1.085073167E0,-1.716651299E0,2.001061184E-1,1.587576352E0,2.346770721E0
1.095105167E0,1.034747255E0,9.751369384E-1,1.768873659E0,2.269473056E0
1.105137167E0,3.667016392E0,1.260467906E0,4.921320748E-1,3.908705993E0
1.115170167E0,5.853435336E0,1.330493576E0,-9.287987776E-1,6.074173652E0
1.125202167E0,7.240462716E0,1.243696045E0,-2.099853401E0,7.640710995E0
1.135234167E0,7.880561507E0,7.930353472E-1,-3.036649708E0,8.482534773E0
1.145266167E0,7.893192077E0,4.049204514E-1,-2.946908981E0,8.435088279E0
1.155299167E0,7.769871376E0,6.383118449E-2,-2.086864396E0,8.045494305E0
1.165331167E0,8.106430677E0,-1.783473864E-2,-8.029558794E-1,8.146120214E0
1.175363167E0,9.195720175E0,1.184507477E-1,8.026893926E-1,9.231446819E0
1.185396167E0,1.039502094E1,1.233115837E-1,2.356694395E0,1.065953445E1
1.195428167E0,1.125491014E1,-4.674122398E-1,3.680632803E0,1.185067653E1
1.205460167E0,1.202297700E1,-1.435572134E0,4.685787885E0,1.298342988E1
1.215492167E0,1.222724831E1,-1.907621801E0,5.168307137E0,1.341104100E1
1.225525167E0,1.208551180E1,-2.074512738E0,5.030470723E0,1.325401201E1
1.235557167E0,1.168290060E1,-2.521598886E0,4.335595801E0,1.271400874E1
1.245589167E0,1.061110363E1,-2.299473250E0,3.539408512E0,1.141974212E1
1.255621167E0,9.450665209E0,-1.921802030E0,2.913316727E0,1.007451291E1
1.265654167E0,8.624447790E0,-1.787533001E0,2.393495893E0,9.127168044E0
1.275686167E0,8.365326090E0,-1.571802903E0,2.485263119E0,8.867117780E0
1.285718167E0,7.986803076E0,-1.091374031E0,2.702981855E0,8.502131001E0
1.295751167E0,7.435803573E0,-8.611861074E-1,2.447370822E0,7.875432701E0
1.305783167E0,7.402617116E0,-1.123134425E0,2.278545334E0,7.826361859E0
1.315815167E0,7.965261349E0,-1.022864105E0,2.078224404E0,8.295218864E0
1.325847750E0,8.518903794E0,-7.921052013E-1,1.734322900E0,8.729663706E0
1.335880750E0,8.824231946E0,-6.945036969E-1,1.469933882E0,8.972742638E0
1.345912750E0,8.724966105E0,-5.745855631E-1,1.311272024E0,8.841641048E0
1.355944750E0,8.362634032E0,-4.673240564E-1,1.339441278E0,8.482107206E0
1.365977750E0,8.049155445E0,-2.699176341E-1,1.550613617E0,8.201595058E0
1.376009750E0,7.960408745E0,9.323641174E-3,1.293180885E0,8.064769750E0
1.386041750E0,7.733889949E0,2.390933424E-1,6.473523346E-1,7.764617468E0
1.396073750E0,7.401958719E0,7.505346409E-1,2.858984399E-1,7.445403485E0
1.406106750E0,6.873931172E0,1.047494112E0,1.858186662E-1,6.955767553E0
1.416138750E0,6.011941658E0,1.289546109E0,6.002763283E-1,6.177920632E0
1.426170750E0,3.593179507E0,1.452374547E0,1.153853284E0,4.043724545E0
1.436203750E0,7.191315114E-2,1.130949814E0,1.429100582E0,1.823882522E0
1.446235750E0,-3.837283804E0,9.026406737E-1,1.616973960E0,4.260764246E0
1.456267750E0,-6.649184083E0,1.206711675E0,1.049016362E0,6.838730684E0
1.466299750E0,-8.580969064E0,1.736882958E0,-2.524041268E-1,8.758624340E0
1.476332750E0,-1.008612423E1,2.108290494E0,-2.325760431E0,1.056333056E1
1.486364750E0,-1.107787750E1,2.482202686E0,-4.584393657E0,1.224325795E1
1.496396750E0,-1.260197531E1,3.412348516E0,-6.196476860E0,1.445165145E1
1.506429750E0,-1.457613798E1,4.077853459E0,-6.698293093E0,1.655173156E1
1.516461750E0,-1.676580681E1,3.404409167E0,-6.403222711E0,1.826700689E1
1.526493750E0,-1.860067711E1,2.417371829E0,-6.750549660E0,1.993486384E1
1.536525750E0,-2.027010513E1,1.902970925E0,-8.104677097E0,2.191310684E1
1.546558750E0,-2.176772441E1,1.358275305E0,-9.840127194E0,2.392711518E1
1.556590750E0,-2.246846175E1,3.286451677E-1,-1.113677182E1,2.507922383E1
1.566622750E0,-2.361503291E1,-1.339970451E0,-1.174477115E1,2.640842573E1
1.576654750E0,-2.413478022E1,-3.432863472E0,-1.198128167E1,2.716290261E1
1.586687750E0,-2.263227500E1,-4.613449641E0,-1.149395718E1,2.579951242E1
1.596719750E0,-1.993613556E1,-5.171137190E0,-1.021781172E1,2.299116868E1
1.606751750E0,-1.653128084E1,-5.252802327E0,-8.257622716E0,1.921102578E1
1.616784750E0,-1.307906717E1,-4.803560164E0,-6.139334360E0,1.522588634E1
1.626816750E0,-1.032152144E1,-3.286670509E0,-3.422936654E0,1.136012778E1
1.636848750E0,-7.283816312E0,-9.599040645E-1,-1.136423611E0,7.434168044E0
1.646880750E0,-2.536920930E0,9.369057959E-1,5.114188233E-1,2.752328013E0
1.656913750E0,3.836232474E0,2.350224597E0,2.171462935E0,4.995546670E0
1.666945750E0,1.005180108E1,3.296540317E0,4.136145813E0,1.135841473E1
1.676977750E0,1.477235534E1,3.310057910E0,6.187047640E0,1.635415923E1
1.687010750E0,1.725180749E1,2.123863822E0,7.799894489E0,1.905187690E1
1.697042750E0,1.788677886E1,3.572198894E-1,9.132610592E0,2.008653878E1
1.707074750E0,1.724639882E1,-8.566757114E-1,1.075020187E1,2.034057536E1
1.717106750E0,1.568951684E1,-1.410654956E0,1.204699268E1,1.983131157E1
1.727139750E0,1.346832451E1,-1.989653266E0,1.209510708E1,1.821115319E1
1.737171750E0,1.138200989E1,-2.440093670E0,1.081401137E1,1.588858232E1
1.747203750E0,9.879158528E0,-2.776990648E0,8.528824180E0,1.334354871E1
1.757235750E0,9.105219895E0,-2.800616323E0,5.421849425E0,1.096106438E1
1.767268750E0,9.102565259E0,-2.311963049E0,2.424106213E0,9.699389587E0
1.777300750E0,9.143271235E0,-1.843648291E0,-4.674118012E-2,9.327412966E0
1.787332750E0,8.710479044E0,-1.472646990E0,-2.002381047E0,9.058182168E0
1.797365750E0,8.274087891E0,-1.182432135E0,-3.017323198E0,8.886108004E0
1.807397750E0,7.816209390E0,-7.874750105E-1,-3.024355352E0,8.417836505E0
1.817429750E0,7.242498132E0,-1.683100926E-1,-2.577238944E0,7.689230654E0
1.827461750E0,6.837945653E0,1.941458688E-1,-1.899474144E0,7.099520787E0
1.837494750E0,6.907263225E0,1.566575054E-1,-1.121136066E0,6.999412326E0
1.847526750E0,7.490003169E0,-1.144840971E-2,-2.331512922E-1,7.493639841E0
1.857558750E0,8.467515539E0,-2.489215983E-1,4.314444083E-1,8.482153361E0
1.867591750E0,9.771672671E0,-3.597001686E-1,1.067739293E0,9.836413889E0
1.877623750E0,1.107110525E1,-3.980506673E-2,1.786871681E0,1.121444900E1
1.887655750E0,1.169982010E1,4.188025819E-1,2.411016051E0,1.195299897E1
1.897687750E0,1.161688787E1,5.981691380E-1,2.829897132E0,1.197155829E1
1.907720750E0,1.107526964E1,5.258325022E-1,3.340652297E0,1.158007147E1
1.917752750E0,1.029820508E1,2.489108540E-1,3.971867705E0,1.104041293E1
1.927784750E0,9.241594505E0,2.987721084E-1,4.677113833E0,1.036203298E1
1.937816750E0,8.308857774E0,6.334924601E-1,5.128237338E0,9.784541298E0
1.947849750E0,7.849043845E0,5.627282868E-1,4.884381548E0,9.261821393E0
1.957881750E0,8.378784041E0,3.821406859E-1,4.300125421E0,9.425557392E0
1.967913750E0,9.309039214E0,3.031756465E-1,3.864544985E0,1.008388985E1
1.977946750E0,9.323619831E0,3.570400509E-1,3.962477953E0,1.013699146E1
1.987978750E0,8.047342808E0,1.029172812E-1,4.228047086E0,9.091023067E0
1.998010750E0,5.244157804E0,7.126147896E-2,4.225021152E0,6.734765995E0
2.008042750E0,1.073469856E0,3.673293963E-1,3.422243174E0,3.605414922E0
2.018075750E0,-4.245064530E0,8.063107925E-1,1.835719321E0,4.694739118E0
2.028107750E0,-1.086235381E1,9.042701465E-1,-5.318261907E-1,1.091289484E1
2.038139750E0,-1.751053977E1,-1.270523947E-1,-3.584723264E0,1.787415414E1
2.048171750E0,-2.163675380E1,-1.543212796E0,-6.629349743E0,2.268212729E1
2.058204750E0,-2.204628810E1,-2.114492344E0,-9.086725152E0,2.393905744E1
2.068236750E0,-2.018774827E1,-1.931811293E0,-9.671224523E0,2.246796962E1
2.078268750E0,-1.974645890E1,-2.323284282E0,-9.919623599E0,2.221979346E1
2.088301750E0,-2.220024763E1,-3.554750729E0,-1.085203347E1,2.496505313E1
2.098333750E0,-2.704579080E1,-4.699106381E0,-1.174944191E1,2.985976869E1
2.108365750E0,-3.108056607E1,-5.492835208E0,-1.050231618E1,3.326366593E1
2.118397750E0,-3.259978028E1,-5.029500670E0,-7.244655755E0,3.377168323E1
2.128430750E0,-3.208947740E1,-3.369969359E0,-3.961672207E0,3.250824665E1
2.138462750E0,-2.927491547E1,-1.760645750E0,-2.253877393E0,2.941429096E1
2.148494750E0,-2.440985195E1,-3.284630635E-1,-2.793532129E0,2.457137729E1
2.158527750E0,-1.925032850E1,6.910510623E-1,-5.284352149E0,1.997441054E1
2.168559750E0,-1.292563273E1,9.477267263E-1,-6.843913321E0,1.465637462E1
2.178591750E0,-6.463463066E0,2.847844576E0,-6.047762285E0,9.298494620E0
2.188623750E0,-1.401811481E0,5.215883008E0,-4.818578445E0,7.238039044E0
2.198656750E0,2.568994077E0,5.878319331E0,-4.260064100E0,7.700812611E0
2.208688750E0,5.799948515E0,5.811484487E0,-3.549001454E0,8.944728394E0
2.218720750E0,8.902474709E0,5.640085055E0,-1.535870740E0,1.065004762E1
2.228752750E0,1.109329193E1,5.481552420E0,1.535958302E0,1.246866916E1
2.238785750E0,1.303917630E1,4.704089085E0,4.553343773E0,1.459045963E1
2.248817750E0,1.565791732E1,3.638304809E0,7.392816013E0,1.769354021E1
2.258849750E0,1.753724050E1,2.646981024E0,9.603714910E0,2.016910144E1
2.268882750E0,1.795055561E1,1.581252881E0,1.075182506E1,2.098391168E1
2.278914750E0,1.779858765E1,7.546157051E-1,1.090689556E1,2.088826316E1
2.288946750E0,1.694517366E1,-1.358428247E-1,1.003757948E1,1.969544022E1
2.298978750E0,1.563387591E1,-1.029658131E0,8.150052660E0,1.766073696E1
2.309011750E0,1.384124472E1,-1.712097195E0,6.009795145E0,1.518647325E1
2.319043750E0,1.146145368E1,-2.010707043E0,3.563764797E0,1.216997464E1
2.329075375E0,9.102105668E0,-1.780854458E0,9.622593230E-1,9.324468520E0
2.339107375E0,7.066121550E0,-1.565547406E0,-1.555031919E0,7.402643900E0
2.349140375E0,5.656977661E0,-1.536305334E0,-3.732547015E0,6.949355190E0
2.359172375E0,5.334058160E0,-1.574336210E0,-4.657069870E0,7.253896245E0
2.369204375E0,5.847553037E0,-1.468139664E0,-4.312051695E0,7.412361325E0
2.379237375E0,6.721151029E0,-1.178727047E0,-2.917137297E0,7.421115726E0
2.389269375E0,6.814064455E0,-1.086099038E0,-1.264113060E0,7.014917487E0
2.399301375E0,6.862812692E0,-1.395257775E0,-2.861068931E-1,7.009051252E0
2.409333375E0,7.288130972E0,-1.683978958E0,1.484432638E-1,7.481622391E0
2.419366375E0,7.444845123E0,-1.517630058E0,6.128291309E-1,7.622629431E0
2.429398375E0,7.943791543E0,-1.541513449E0,1.337765758E0,8.201811081E0
2.439430375E0,8.838960498E0,-1.410493573E0,2.734494546E0,9.359175991E0
2.449462375E0,9.334203876E0,-1.114298624E0,4.056634498E0,1.023842307E1
2.459495375E0,9.863616629E0,-7.398949742E-1,4.550704047E0,1.088794218E1
2.469527375E0,1.011252090E1,-2.356641331E-1,4.365733812E0,1.101717969E1
2.479559375E0,1.003878635E1,1.750930455E-1,3.689120622E0,1.069661161E1
2.489592375E0,9.858033707E0,5.321209634E-1,3.172509763E0,1.036960942E1
2.499624375E0,9.246964588E0,8.658816408E-1,3.133942406E0,9.801923286E0
2.509656375E0,8.693761854E0,9.554398616E-1,2.764732253E0,9.172682538E0
2.519688375E0,8.907502145E0,9.468696707E-1,2.413738515E0,9.277191938E0
2.529721375E0,8.426644671E0,1.237576641E0,2.539509200E0,8.887578035E0
2.539753375E0,7.174396781E0,1.586868985E0,2.734404792E0,7.840095147E0
2.549785375E0,4.795541877E0,1.652053892E0,2.919297259E0,5.852247469E0
2.559817375E0,1.225971673E0,1.451021063E0,2.771770254E0,3.360234963E0
2.569850375E0,-2.846283662E0,1.542581882E0,1.675441585E0,3.645270093E0
2.579882375E0,-7.011217364E0,1.659828642E0,5.927322507E-3,7.205014586E0
2.589914375E0,-1.128900876E1,1.367462889E0,-1.814029659E0,1.151531055E1
2.599947375E0,-1.521274774E1,7.476586148E-2,-2.884575908E0,1.548399373E1
2.609979375E0,-1.845646724E1,-1.922992815E0,-3.880655526E0,1.895781030E1
2.620011375E0,-2.098445011E1,-3.117426653E0,-5.299546723E0,2.186665706E1
2.630043375E0,-2.286195130E1,-3.468696964E0,-7.433536023E0,2.428905378E1
2.640076375E0,-2.389880530E1,-3.885413405E0,-8.864574226E0,2.578429771E1
2.650108375E0,-2.463686425E1,-4.818493076E0,-9.776904175E0,2.694031943E1
2.660140375E0,-2.525748538E1,-5.778436024E0,-1.000278972E1,2.777384908E1
2.670172375E0,-2.634500668E1,-5.312886561E0,-1.015727432E1,2.873075638E1
2.680205375E0,-2.783073974E1,-4.509464805E0,-1.201561769E1,3.064735577E1
2.690237375E0,-2.826819099E1,-3.604928025E0,-1.439565315E1,3.192680626E1
2.700269375E0,-2.649549764E1,-2.420351862E0,-1.633190248E1,3.121859281E1
2.710301375E0,-2.260528426E1,-1.103549030E0,-1.713541165E1,2.838730401E1
2.720334375E0,-1.774319463E1,5.812839506E-1,-1.647902778E1,2.422224604E1
2.730366375E0,-1.173397719E1,1.318312802E0,-1.429910275E1,1.854423115E1
2.740398375E0,-4.461805612E0,2.040612482E0,-1.034307779E1,1.144775379E1
2.750431375E0,2.541233252E0,3.233448275E0,-5.559475924E0,6.915260425E0
2.760463375E0,8.345730901E0,4.757986965E0,-1.066885307E0,9.665811321E0
2.770495375E0,1.270939334E1,5.790457900E0,3.435936184E0,1.438275840E1
2.780527375E0,1.552862602E1,5.915695903E0,8.063492818E0,1.847034382E1
2.790560375E0,1.721032852E1,5.122186055E0,1.264706670E1,2.196316219E1
2.800592375E0,1.748277953E1,3.230209503E0,1.562683820E1,2.367023248E1
2.810624375E0,1.697612765E1,1.184866185E0,1.634158547E1,2.359322431E1
2.820656375E0,1.512983422E1,-4.819403780E-1,1.536116294E1,2.156639694E1
2.830689375E0,1.259584041E1,-2.527037382E0,1.325265113E1,1.845735288E1
2.840721375E0,1.014215927E1,-4.060589554E0,1.066102014E1,1.526463667E1
2.850753375E0,9.204095727E0,-5.122524608E0,8.270517581E0,1.339242687E1
2.860786375E0,8.973289168E0,-5.583643636E0,7.951682360E0,1.322596866E1
2.870818375E0,7.761668901E0,-5.555322647E0,6.956093323E0,1.181068788E1
2.880850375E0,5.955116077E0,-5.541833705E0,4.805516642E0,9.448191282E0
2.890882375E0,4.189817698E0,-4.968296109E0,2.260702556E0,6.881083826E0
2.900915375E0,3.629252150E0,-3.780621945E0,9.561542451E-2,5.241537539E0
2.910947375E0,3.723125689E0,-2.907062545E0,-7.968135256E-1,4.790364217E0
2.920979375E0,4.335225672E0,-2.460600440E0,-9.352235520E-1,5.071822084E0
2.931011375E0,5.467037877E0,-2.067875125E0,-5.154063320E-1,5.867729916E0
2.941044375E0,6.275676811E0,-1.808656214E0,8.691710651E-2,6.531685183E0
2.951076375E0,6.776810090E0,-1.968616300E0,5.330795413E-1,7.077060048E0
2.961108375E0,7.686319926E0,-2.270434808E0,1.483450305E0,8.150767635E0
2.971141375E0,8.845870737E0,-2.325489705E0,4.127603908E0,1.003466220E1
2.981173375E0,9.426664728E0,-2.090364685E0,7.053169382E0,1.195737558E1
2.991205375E0,9.315282871E0,-1.897594849E0,8.845915176E0,1.298559111E1
3.001237375E0,9.013859489E0,-1.747936242E0,9.649958784E0,1.332015948E1
3.011270375E0,9.101462474E0,-1.525524677E0,9.116187517E0,1.297184334E1
3.021302375E0,1.001850937E1,-1.229700296E0,7.441081855E0,1.254003158E1
3.031334375E0,1.088859494E1,-8.476312383E-1,6.159892001E0,1.253890936E1
3.041366375E0,1.091324563E1,-6.207452376E-1,5.500869282E0,1.223698565E1
3.051399375E0,1.012060410E1,-6.642995390E-1,5.574047186E0,1.157315528E1
3.061431375E0,8.531366549E0,-1.110967466E0,6.171740799E0,1.058814660E1
3.071463375E0,6.548652320E0,-1.314780061E0,6.024126670E0,8.994642625E0
3.081495375E0,5.142178270E0,-1.582274682E0,5.724517094E0,7.855933203E0
3.091528375E0,4.334759649E0,-1.469651754E0,5.036056568E0,6.805283480E0
3.101560375E0,3.564041662E0,-1.568581380E0,4.077947014E0,5.638483162E0
3.111592375E0,1.994706284E0,-1.480999153E0,3.049322378E0,3.933265642E0
3.121625375E0,-5.925948411E-1,-6.731414062E-1,1.870350625E0,2.074246721E0
3.131657375E0,-4.192893333E0,-4.566441536E-2,8.181435835E-1,4.272212386E0
3.141689375E0,-9.428168047E0,8.446804409E-1,-1.261880009E0,9.549669048E0
3.151721375E0,-1.528150164E1,1.769129329E0,-5.065574482E0,1.619611545E1
3.161754375E0,-1.957000865E1,1.677443525E0,-9.036280637E0,2.162067119E1
3.171786375E0,-2.105394544E1,6.588158740E-1,-1.186136346E1,2.417425490E1
3.181818375E0,-2.097684639E1,8.157845244E-1,-1.297782965E1,2.468030898E1
3.191850375E0,-2.067195620E1,7.470978668E-1,-1.161587045E1,2.372375128E1
3.201883375E0,-2.178575021E1,1.498368891E0,-7.686593576E0,2.315054518E1
3.211915375E0,-2.563523656E1,3.144986919E0,-3.949522862E0,2.612766785E1
3.221947375E0,-2.924846500E1,3.245622763E0,-4.278636319E0,2.973740912E1
3.231979375E0,-2.957374561E1,3.304255718E0,-9.304905818E0,3.117861138E1
3.242012375E0,-2.744879026E1,4.086794144E0,-1.577441724E1,3.192131282E1
3.252044375E0,-2.363271489E1,4.023450964E0,-2.035128553E1,3.144627472E1
3.262076375E0,-1.901157382E1,4.282712121E0,-2.069406335E1,2.842579498E1
3.272109375E0,-1.540950421E1,4.574068644E0,-1.775428329E1,2.394972858E1
3.282141375E0,-1.228278867E1,4.862229079E0,-1.254449016E1,1.821736541E1
3.292173375E0,-9.427137183E0,5.144118376E0,-9.042240120E0,1.403905181E1
3.302205375E0,-5.598762782E0,4.000805283E0,-7.776154209E0,1.038369693E1
3.312238375E0,-5.243935025E-1,2.982459175E0,-5.089963219E0,5.922649478E0
3.322270375E0,4.220177611E0,1.953981889E0,-1.025510994E0,4.762312158E0
3.332302250E0,8.038490708E0,5.049218358E-1,3.379575457E0,8.734632746E0
3.342334250E0,1.065099567E1,-7.927879369E-1,7.496933874E0,1.304899379E1
3.352367250E0,1.202580003E1,-2.012248808E0,1.114013748E1,1.651580076E1
3.362399250E0,1.249735459E1,-2.961711792E0,1.348354364E1,1.862153478E1
3.372431250E0,1.313335272E1,-3.558858106E0,1.486663467E1,2.015359152E1
3.382463250E0,1.326858362E1,-3.958068860E0,1.476103396E1,2.023881775E1
3.392496250E0,1.298925862E1,-4.283184868E0,1.296667550E1,1.884678184E1
3.402528250E0,1.305831541E1,-4.528237875E0,1.136928635E1,1.789651395E1
3.412560250E0,1.295893379E1,-4.456385828E0,1.019409190E1,1.707960331E1
3.422593250E0,1.209104326E1,-4.096370129E0,8.344408845E0,1.525131910E1
3.432625250E0,1.116297670E1,-3.180274866E0,6.275293234E0,1.319490441E1
3.442657250E0,9.812182181E0,-1.810882103E0,4.694275119E0,1.102698653E1
3.452689250E0,8.341438460E0,-6.212773342E-1,3.489468028E0,9.063220632E0
3.462722250E0,7.614500915E0,-5.330467969E-3,2.481168898E0,8.008548664E0
3.472754250E0,7.536133023E0,3.101714015E-1,1.787789694E0,7.751496580E0
3.482786250E0,7.573326577E0,5.632005957E-1,1.558222745E0,7.752453062E0
3.492818250E0,7.623738347E0,4.982933591E-1,1.861537117E0,7.863523580E0
3.502851250E0,7.781898513E0,3.864337847E-1,2.561846441E0,8.201849348E0
3.512883250E0,8.155557228E0,2.807031157E-1,3.387291443E0,8.835476855E0
3.522915250E0,8.614506354E0,2.207923248E-1,3.910178118E0,9.462978489E0
3.532947250E0,8.930133208E0,2.608162236E-1,4.167646226E0,9.858223941E0
3.542980250E0,8.929950190E0,4.363893986E-2,4.518543484E0,1.000815417E1
3.553012250E0,8.412275138E0,-1.825423251E-1,4.586078240E0,9.582891439E0
3.563044250E0,7.827063577E0,-5.115233423E-1,4.403172072E0,8.995137834E0
3.573077250E0,7.610816000E0,-9.169451559E-1,4.426636949E0,8.852142299E0
3.583109250E0,7.511951278E0,-1.357667926E0,4.525924425E0,8.874495259E0
3.593141250E0,7.722658033E0,-1.808023399E0,4.543419294E0,9.140626597E0
3.603173250E0,7.988613374E0,-1.916699749E0,4.566992344E0,9.399420229E0
3.613206250E0,8.000583794E0,-2.141248910E0,4.688393404E0,9.517106738E0
3.623238250E0,7.898786108E0,-2.273091052E0,5.209257528E0,9.731090838E0
3.633270250E0,7.585657770E0,-2.256489637E0,5.659187908E0,9.729355429E0
3.643302250E0,7.065768378E0,-2.185186789E0,5.882303624E0,9.449953439E0
3.653335250E0,6.607798660E0,-1.776344793E0,5.646545058E0,8.871407727E0
3.663367250E0,6.165819324E0,-1.154104422E0,4.643555201E0,7.804606963E0
3.673399250E0,4.973524690E0,-6.669076896E-1,3.468229187E0,6.099944868E0
3.683432250E0,3.742737250E0,4.831570373E-1,2.724031831E0,4.654231651E0
3.693464250E0,2.331517015E0,2.196194757E0,2.689422746E0,4.182372259E0
3.703496250E0,5.129528403E-2,4.655906274E0,2.856482375E0,5.462562219E0
3.713528250E0,-2.486906771E0,7.509644551E0,2.796599870E0,8.390496851E0
3.723561250E0,-5.664348076E0,1.008406601E1,1.636589468E0,1.168125214E1
3.733593250E0,-8.998702921E0,1.098409985E1,-1.010485988E0,1.423545524E1
3.743625250E0,-1.215795178E1,9.996325035E0,-4.757533806E0,1.644312725E1
3.753657250E0,-1.397691298E1,7.782732911E0,-8.379211473E0,1.805924176E1
3.763690250E0,-1.501089367E1,5.409208914E0,-1.206140724E1,2.000160030E1
3.773722250E0,-1.701986716E1,2.447464670E0,-1.722209545E1,2.433652673E1
3.783754250E0,-2.081281328E1,-1.872496553E0,-2.312298270E1,3.116651679E1
3.793786250E0,-2.686560768E1,-8.216947145E0,-2.997496518E1,4.108257093E1
3.803819250E0,-3.645706917E1,-1.454340059E1,-3.511782055E1,5.266772934E1
3.813851250E0,-3.764032576E1,-1.559077491E1,-3.286423114E1,5.234428406E1
3.823883250E0,-3.335049728E1,-1.493828645E1,-2.440991276E1,4.394601134E1
3.833916250E0,-3.178248221E1,-1.593698387E1,-1.734775563E1,3.956081717E1
3.843948250E0,-2.865606254E1,-1.451881305E1,-1.424653979E1,3.514156725E1
3.853980250E0,-2.235696002E1,-1.122505425E1,-1.312879190E1,2.825244558E1
3.864012250E0,-1.571359918E1,-9.089911299E0,-1.326158450E1,2.248139921E1
3.874045250E0,-8.664565537E0,-6.217426264E0,-1.393432070E1,1.754697634E1
3.884077250E0,-2.665450916E0,-3.779549566E0,-1.252992592E1,1.335622203E1
3.894109250E0,2.815417380E0,-2.128836879E0,-7.462470385E0,8.255118759E0
3.904141250E0,7.784949591E0,-9.815823973E-1,-4.996445775E-2,7.846747134E0
3.914174250E0,1.217289727E1,-1.122621478E0,7.505053318E0,1.434452969E1
3.924206250E0,1.545974115E1,-2.018003053E0,1.434804395E1,2.118825849E1
3.934238250E0,1.778377782E1,-3.151523522E0,1.916808624E1,2.633648390E1
3.944271250E0,1.810239728E1,-3.097851637E0,2.195256191E1,2.862181767E1
3.954303250E0,1.623265886E1,-3.241862126E0,2.258316307E1,2.800014532E1
3.964335250E0,1.405085454E1,-3.945076347E0,2.164283490E1,2.610368639E1
3.974367250E0,1.204119458E1,-4.016808527E0,1.899934028E1,2.284950872E1
3.984400250E0,1.113202973E1,-3.926965766E0,1.524165871E1,1.927825994E1
3.994432250E0,1.154925547E1,-3.639289188E0,1.104528278E1,1.638987490E1
4.004464250E0,1.246035808E1,-2.685179714E0,6.868975073E0,1.447941754E1
4.014496250E0,1.314569035E1,-1.605644687E0,4.072956415E0,1.385554920E1
4.024529250E0,1.249242772E1,-8.261526610E-1,2.945552427E0,1.286155347E1
4.034561250E0,1.059469166E1,-4.242213428E-1,3.082114733E0,1.104205082E1
4.044593250E0,8.393298585E0,-6.195022658E-1,4.041172705E0,9.336076319E0
4.054626250E0,6.902830451E0,-8.971956003E-1,4.715359009E0,8.407653583E0
4.064658250E0,6.621581717E0,-1.075639320E0,4.522669864E0,8.090543065E0
4.074690250E0,8.311760332E0,-1.287950989E0,3.474792101E0,9.100459203E0
4.084722250E0,1.034555350E1,-9.676460704E-1,3.215987320E0,1.087701202E1
4.094755250E0,1.098783505E1,-9.857680535E-1,4.593700086E0,1.195016060E1
4.104787250E0,9.787215739E0,-1.755413661E0,5.620631368E0,1.142202110E1
4.114819250E0,8.527624331E0,-2.472943328E0,5.885987955E0,1.065273109E1
4.124851250E0,7.510400596E0,-3.034014075E0,5.640749298E0,9.870633778E0
4.134884250E0,7.014069636E0,-3.625464031E0,4.477900658E0,9.077045588E0
4.144916250E0,7.977063369E0,-3.424147320E0,3.816535544E0,9.482840736E0
4.154948250E0,8.684646045E0,-3.318113034E0,3.928828397E0,1.009299973E1
4.164980250E0,9.346593542E0,-3.516767508E0,4.230679210E0,1.084551110E1
4.175013250E0,9.659182767E0,-3.583581010E0,5.031410370E0,1.146546793E1
4.185045250E0,8.590347998E0,-3.625927716E0,5.537410287E0,1.084455362E1
4.195077250E0,7.719784126E0,-3.703519683E0,5.798584945E0,1.034092415E1
4.205110250E0,7.024813895E0,-3.387093222E0,5.780215332E0,9.707280774E0
4.215142250E0,5.568594072E0,-3.385373556E0,4.722771524E0,8.048264715E0
4.225174250E0,4.518068690E0,-3.405561653E0,3.152339793E0,6.476730736E0
4.235206250E0,3.447463385E0,-2.737231043E0,1.854801709E0,4.776790445E0
4.245239250E0,2.855158566E0,-2.080507742E0,1.538313560E0,3.853161236E0
4.255271250E0,1.821822828E0,-1.475351327E0,9.320800889E-1,2.522790766E0
4.265303250E0,-3.749749231E-1,-7.771054852E-1,-1.085306960E0,1.386502912E0
4.275335250E0,-2.791339130E0,8.143238899E-1,-3.265634859E0,4.372535714E0
4.285368250E0,-5.970159209E0,2.973801495E0,-5.827951416E0,8.857274638E0
4.295400250E0,-9.024460491E0,5.139968022E0,-8.899007894E0,1.367671378E1
4.305432250E0,-9.877544696E0,7.741458585E0,-1.106019201E1,1.672793823E1
4.315465250E0,-8.803343938E0,9.654095689E0,-1.178995376E1,1.759839304E1
4.325497292E0,-8.370031929E0,1.064729321E1,-1.090996534E1,1.739107907E1
4.335529292E0,-1.027004022E1,1.086470790E1,-9.820284083E0,1.788724638E1
4.345561292E0,-1.442191884E1,1.032495142E1,-9.207478341E0,1.998434443E1
4.355594292E0,-1.854165766E1,9.329887462E0,-7.924770550E0,2.221805250E1
4.365626292E0,-2.285945570E1,8.761753278E0,-7.440457957E0,2.558678273E1
4.375658292E0,-2.556066351E1,8.075945048E0,-8.155130966E0,2.801918216E1
4.385690292E0,-2.607659376E1,7.642329569E0,-1.009122885E1,2.898666664E1
4.395723292E0,-2.519507922E1,6.628657433E0,-1.210401005E1,2.872695904E1
4.405755292E0,-2.230044318E1,5.526343846E0,-1.201652635E1,2.592772932E1
4.415787292E0,-1.902679296E1,4.402038882E0,-1.042651405E1,2.213840535E1
4.425820292E0,-1.582638262E1,2.918300309E0,-8.193545419E0,1.805893269E1
4.435852292E0,-1.276290472E1,1.977400280E0,-6.755884659E0,1.457545286E1
4.445884292E0,-9.478216705E0,1.610214432E0,-6.325264124E0,1.150818616E1
4.455916292E0,-6.615432200E0,9.817097935E-1,-5.892245060E0,8.913262543E0
4.465949292E0,-3.671570789E0,8.670143196E-1,-5.167399650E0,6.397981324E0
4.475981292E0,1.511505246E-3,8.728729373E-1,-3.007809486E0,3.131904748E0
4.486013292E0,3.283971142E0,7.269697040E-2,4.134460938E-1,3.310693128E0
4.496045292E0,5.768924358E0,-9.929981357E-1,4.306663193E0,7.267315970E0
4.506078292E0,7.243124954E0,-2.354866701E0,7.775503414E0,1.088424134E1
4.516110292E0,8.382349674E0,-4.283129320E0,9.396363287E0,1.330039946E1
4.526142292E0,9.617330151E0,-5.543456308E0,1.039083317E1,1.520501105E1
4.536175292E0,9.126493819E0,-6.380681110E0,1.104513309E1,1.568441729E1
4.546207292E0,7.595577571E0,-7.190463760E0,1.090295219E1,1.510860464E1
4.556239292E0,6.364519991E0,-7.223403465E0,9.868359890E0,1.378655864E1
4.566271292E0,5.479066769E0,-7.448880286E0,8.351497425E0,1.246007622E1
4.576304292E0,5.456998208E0,-7.544858823E0,5.648603278E0,1.089084217E1
4.586336292E0,6.620223409E0,-7.159369437E0,2.924550982E0,1.018022235E1
4.596368292E0,8.545793969E0,-6.570138499E0,9.400165147E-1,1.082039489E1
4.606400292E0,9.728590386E0,-5.918251721E0,4.310830504E-2,1.138740676E1
4.616433292E0,9.770530710E0,-5.747821172E0,1.066538567E0,1.138587823E1
4.626465292E0,9.094104922E0,-5.855478353E0,3.574791768E0,1.139159810E1
4.636497292E0,7.925982678E0,-6.051848320E0,5.898272955E0,1.158601283E1
4.646530292E0,7.449732810E0,-5.945079916E0,7.417615809E0,1.207739701E1
4.656562292E0,7.390133895E0,-5.522957139E0,8.105457115E0,1.228069907E1
4.666594292E0,7.888117864E0,-5.142063664E0,7.621685389E0,1.211417807E1
4.676626292E0,8.560516089E0,-4.668321083E0,7.051035733E0,1.203298643E1
4.686659292E0,9.257154531E0,-4.212003204E0,7.017986101E0,1.235669899E1
4.696691292E0,9.766095012E0,-3.920463370E0,7.194546286E0,1.274786810E1
4.706723292E0,9.727609808E0,-3.435787665E0,7.505435141E0,1.275784410E1
4.716755292E0,9.173199624E0,-3.243156992E0,7.808659465E0,1.247560905E1
4.726788292E0,8.562964903E0,-3.142389001E0,8.666827825E0,1.258224468E1
4.736820292E0,8.611914284E0,-2.734779598E0,9.319792829E0,1.298085611E1
4.746852292E0,8.881305449E0,-2.106955283E0,8.818805730E0,1.269205190E1
4.756885292E0,8.482999551E0,-1.915306942E0,6.611634434E0,1.092444012E1
4.766917292E0,8.349920431E0,-1.781957681E0,4.977255798E0,9.882794122E0
4.776949292E0,7.932652012E0,-1.423914540E0,4.672045759E0,9.315713185E0
4.786981292E0,7.185978361E0,-1.295341285E0,4.989967060E0,8.843979043E0
4.797014292E0,6.454403390E0,-7.739029652E-1,5.993684896E0,8.842087285E0
4.807046292E0,5.204502572E0,5.210863173E-2,6.611405808E0,8.414288388E0
4.817078292E0,4.006956553E0,5.299249685E-1,6.004471840E0,7.238107720E0
4.827110292E0,2.590446927E0,9.120019197E-1,4.052302296E0,4.895234078E0
4.837143292E0,5.925854856E-1,1.848965018E0,1.535626180E0,2.475475098E0
4.847175292E0,-1.890831667E0,2.985669296E0,-1.386973001E0,3.796466732E0
4.857207292E0,-4.044631918E0,4.169161824E0,-3.578146901E0,6.822323131E0
4.867239292E0,-5.433668987E0,4.861620677E0,-4.280489886E0,8.454744699E0
4.877272292E0,-7.294154189E0,4.792013667E0,-4.596453540E0,9.863846383E0
4.887304292E0,-1.024814122E1,4.785323283E0,-5.617927616E0,1.262873027E1
4.897336292E0,-1.518401218E1,3.320803338E0,-9.768322216E0,1.835761640E1
4.907369292E0,-1.965852146E1,1.164233261E0,-1.475102353E1,2.460499136E1
4.917401292E0,-2.210006144E1,6.530461340E-1,-1.799789818E1,2.850900776E1
4.927433292E0,-2.344360658E1,1.159514558E-1,-2.017520716E1,3.092984187E1
4.937465292E0,-2.416876189E1,-3.598581165E-1,-2.081055392E1,3.189573175E1
4.947498292E0,-2.471167119E1,-1.060583543E0,-1.962768558E1,3.157590176E1
4.957530292E0,-2.501358165E1,-2.602196614E0,-1.760708666E1,3.069951456E1
4.967562292E0,-2.458319617E1,-3.195157491E0,-1.465846678E1,2.879953495E1
4.977594292E0,-2.455999442E1,-3.133740092E0,-1.206842623E1,2.754379357E1
4.987627292E0,-2.459572324E1,-3.246012188E0,-9.847327455E0,2.669187245E1
4.997659292E0,-2.254743892E1,-2.713174721E0,-7.841581628E0,2.402579284E1
5.007691292E0,-1.798046178E1,-1.268031572E0,-6.442266909E0,1.914177925E1
5.017724292E0,-1.217200381E1,3.367662194E-1,-6.372569852E0,1.374338877E1
5.027756292E0,-6.171210456E0,1.553181860E0,-6.627585053E0,9.188095343E0
5.037788292E0,-2.855785972E-1,2.388263074E0,-6.886214418E0,7.294196643E0
5.047820292E0,4.916212621E0,2.973514981E0,-5.456070839E0,7.923360832E0
5.057853292E0,8.759143081E0,2.651668737E0,-1.473817602E0,9.269631758E0
5.067885292E0,1.141915843E1,1.516422755E0,4.988340365E0,1.255309749E1
5.077917292E0,1.357086128E1,5.142099917E-2,1.190507725E1,1.805275005E1
5.087949292E0,1.478936723E1,-1.393895959E0,1.731389323E1,2.281313717E1
5.097982292E0,1.556589150E1,-2.478061688E0,2.039633248E1,2.577689172E1
5.108014292E0,1.521745826E1,-3.394345816E0,2.019214070E1,2.551107926E1
5.118046292E0,1.411128200E1,-4.136482613E0,1.702269721E1,2.249468801E1
5.128079292E0,1.319322003E1,-4.584182865E0,1.313579920E1,1.917354969E1
5.138111292E0,1.230991624E1,-4.807187777E0,9.740243302E0,1.641692516E1
5.148143292E0,1.108941522E1,-4.977231824E0,6.201979090E0,1.364597051E1
5.158175292E0,9.854609578E0,-5.129852924E0,3.401320083E0,1.161885103E1
5.168208292E0,8.907907357E0,-4.956095309E0,1.327925186E0,1.027993577E1
5.178240292E0,8.212871636E0,-4.498464730E0,-4.174037817E-1,9.373455679E0
5.188272292E0,7.741084948E0,-4.073363382E0,-1.673581586E0,8.906040688E0
5.198304292E0,7.414365926E0,-3.552911195E0,-2.504826148E0,8.594774813E0
5.208337292E0,7.450730345E0,-3.009570082E0,-2.412165614E0,8.389841340E0
5.218369292E0,7.546078552E0,-2.576022431E0,-3.832215437E-1,7.982859878E0
5.228401292E0,7.588937473E0,-2.455341162E0,1.724578369E0,8.160566325E0
5.238433292E0,7.797153314E0,-2.023943093E0,2.682733532E0,8.490524404E0
5.248466292E0,8.490548891E0,-1.373765164E0,2.842346147E0,9.058453666E0
5.258498292E0,9.016920506E0,-8.361002366E-1,2.219634637E0,9.323663279E0
5.268530292E0,9.492596762E0,-4.651104102E-1,1.953976334E0,9.702769939E0
5.278563292E0,9.710863382E0,-1.190129118E-1,2.260828271E0,9.971277560E0
5.288595292E0,9.978610311E0,-3.150538266E-2,2.573271900E0,1.030511449E1
5.298627292E0,1.059534070E1,1.461422382E-1,2.930622438E0,1.099414162E1
5.308659292E0,1.121078237E1,4.576448315E-1,3.073293623E0,1.163340938E1
5.318692292E0,1.179238269E1,6.718414970E-1,3.308103186E0,1.226601839E1
5.328724500E0,1.169781100E1,9.738371024E-1,3.772843979E0,1.232969961E1
5.338756500E0,1.113150933E1,1.110817923E0,4.568482214E0,1.208368512E1
5.348788500E0,1.045674883E1,8.646422504E-1,5.518533136E0,1.185518495E1
5.358821500E0,1.040587805E1,1.107128038E0,5.540685312E0,1.184091315E1
5.368853500E0,1.012895158E1,1.530101146E0,4.431805010E0,1.116144100E1
5.378885500E0,9.216264952E0,1.704501954E0,2.898454274E0,9.810499669E0
5.388918500E0,8.182131069E0,1.875449543E0,1.628691634E0,8.550860557E0
5.398950500E0,6.118817065E0,1.665976697E0,7.353481793E-1,6.384053382E0
5.408982500E0,2.451358624E0,1.371103073E0,-1.214735663E-1,2.811376632E0
5.419014500E0,-2.272967091E0,1.996391013E0,-6.450426114E-1,3.093224279E0
5.429047500E0,-6.110326908E0,2.343083539E0,-1.062424758E0,6.629847793E0
5.439079500E0,-8.464069775E0,2.644935960E0,-2.245085227E0,9.147489878E0
5.449111500E0,-9.527588255E0,3.404239013E0,-3.954554976E0,1.086288572E1
5.459143500E0,-1.050050237E1,3.899715402E0,-5.486354738E0,1.247270695E1
5.469176500E0,-1.316407516E1,4.106144334E0,-6.865781908E0,1.540429347E1
5.479208500E0,-1.616456218E1,3.839253731E0,-7.620063372E0,1.827835620E1
5.489240500E0,-1.868455776E1,3.387696655E0,-7.725142515E0,2.050041498E1
5.499272500E0,-2.075823069E1,3.045257101E0,-7.485501983E0,2.227578219E1
5.509305500E0,-2.221660814E1,3.154917538E0,-7.200315149E0,2.356641084E1
5.519337500E0,-2.278173919E1,3.492208326E0,-7.154368898E0,2.413271957E1
5.529369500E0,-2.435884084E1,3.785060567E0,-8.272258297E0,2.600211661E1
5.539402500E0,-2.596274145E1,2.862211185E0,-9.603559374E0,2.782956250E1
5.549434500E0,-2.600694172E1,2.279120847E0,-1.097844443E1,2.832104609E1
5.559466500E0,-2.483448611E1,1.664606110E0,-1.206659255E1,2.766089784E1
5.569498500E0,-2.319003155E1,5.951078648E-1,-1.238592537E1,2.629720259E1
5.579531500E0,-2.063856392E1,-4.017620048E-1,-1.162331630E1,2.368993911E1
5.589563500E0,-1.737740335E1,-1.167680487E0,-9.181519042E0,1.968852246E1
5.599595500E0,-1.440321477E1,-1.263558744E0,-5.851523296E0,1.559774026E1
5.609627500E0,-1.153050812E1,-1.535829079E0,-3.821330845E0,1.224393556E1
5.619660500E0,-7.953863372E0,-1.332120856E0,-2.662056315E0,8.492645779E0
5.629692500E0,-3.322273913E0,-1.187229191E0,-2.173500982E0,4.143805452E0
5.639724500E0,1.397797367E0,-8.269277094E-1,-1.444611930E0,2.173603125E0
5.649756500E0,4.855390468E0,3.578291327E-1,-1.255093145E-1,4.870175651E0
5.659789500E0,7.402131212E0,1.594749717E0,1.603526387E0,7.739901163E0
5.669821500E0,9.856592953E0,2.381816226E0,3.450510954E0,1.071127906E1
5.679853500E0,1.323692679E1,2.566630925E0,5.651930344E0,1.462012797E1
5.689886500E0,1.675027777E1,1.992421338E0,8.255068653E0,1.877998154E1
5.699918500E0,1.858703088E1,4.366699918E-1,1.085427880E1,2.152867311E1
5.709950500E0,1.817792576E1,-1.299792478E0,1.283825778E1,2.229231501E1
5.719982500E0,1.626951503E1,-2.813384010E0,1.329384827E1,2.119760955E1
5.730015500E0,1.319482216E1,-4.109207691E0,1.191641968E1,1.824801298E1
5.740047500E0,1.021996700E1,-4.650482397E0,9.352776972E0,1.461332095E1
5.750079500E0,8.235217355E0,-4.845909208E0,5.802117248E0,1.117882845E1
5.760111500E0,7.242980527E0,-4.554330783E0,2.159962631E0,8.824292287E0
5.770144500E0,6.731221688E0,-3.955315699E0,-5.020454443E-1,7.823421076E0
5.780176500E0,6.562040105E0,-3.432830728E0,-2.043874058E0,7.682585392E0
5.790208500E0,6.694290674E0,-2.833823830E0,-2.466917480E0,7.676572606E0
5.800241500E0,6.910498490E0,-2.347568499E0,-2.009493892E0,7.569949335E0
5.810273500E0,6.977979451E0,-1.932248227E0,-8.059731889E-1,7.285284704E0
5.820305500E0,7.069954984E0,-1.654620235E0,1.070206818E0,7.339439640E0
5.830337500E0,7.489359391E0,-1.534693842E0,3.134187404E0,8.262500829E0
5.840370500E0,7.966057740E0,-1.265641084E0,4.815833177E0,9.394262742E0
5.850402500E0,8.531078281E0,-1.030354973E0,5.620672299E0,1.026805167E1
5.860434500E0,9.194825551E0,-8.439759976E-1,5.056233555E0,1.052723184E1
5.870466500E0,9.895280471E0,-4.630553332E-1,4.004844247E0,1.068502566E1
5.880499500E0,1.044546604E1,-1.371976794E-1,3.322774142E0,1.096208977E1
5.890531500E0,1.071084777E1,-9.848311834E-2,3.093589601E0,1.114909214E1
5.900563500E0,1.072418527E1,-3.884126287E-1,3.638263586E0,1.133119482E1
5.910595500E0,1.050179578E1,-8.244588688E-1,4.569563949E0,1.148252419E1
5.920628500E0,9.917083569E0,-1.128806736E0,5.182722863E0,1.124648245E1
5.930660500E0,9.489217072E0,-1.325370392E0,5.426196245E0,1.101115130E1
5.940692500E0,9.639852456E0,-1.347179483E0,5.078035483E0,1.097852870E1
5.950725500E0,9.347880514E0,-1.384837160E0,4.293884980E0,1.037969616E1
5.960757500E0,8.381307700E0,-1.526228535E0,3.770000186E0,9.316039593E0
5.970789500E0,6.985797763E0,-1.503491929E0,3.480256617E0,7.948210144E0
5.980821500E0,5.430558268E0,-1.126773513E0,3.260702147E0,6.433720552E0
5.990854500E0,3.971097334E0,-7.272860384E-1,2.901975467E0,4.971923233E0
6.000886500E0,2.780556865E0,-1.300894386E-1,1.933470733E0,3.389207697E0
6.010918500E0,1.271435528E0,8.323906168E-1,1.037481998E0,1.840051993E0
6.020950500E0,-1.370522445E0,1.958319792E0,2.519451204E-1,2.403502553E0
6.030983500E0,-4.831280644E0,4.111529912E0,-1.466396901E-1,6.345664195E0
6.041015500E0,-8.493094769E0,6.948151050E0,-1.016477922E0,1.102010386E1
6.051047500E0,-1.127706641E1,9.796361954E0,-2.858998140E0,1.520903694E1
6.061079500E0,-1.278810271E1,1.068157778E1,-6.781963241E0,1.798962757E1
6.071112500E0,-1.415008646E1,9.206929287E0,-1.209453639E1,2.076704852E1
6.081144500E0,-1.658140551E1,6.230587177E0,-1.682258444E1,2.442872433E1
6.091176500E0,-2.021193235E1,2.812272455E0,-1.852411952E1,2.756037173E1
6.101208500E0,-2.458957665E1,7.101151049E-3,-1.707907840E1,2.993897542E1
6.111241500E0,-2.682561974E1,-3.049153394E0,-1.367221224E1,3.026285840E1
6.121273500E0,-2.654195494E1,-5.538806017E0,-8.120574507E0,2.830366539E1
6.131305500E0,-2.519247136E1,-7.021516650E0,-3.274307449E0,2.635684728E1
6.141338500E0,-2.382847032E1,-8.082109183E0,-1.265024056E0,2.519358594E1
6.151370500E0,-2.287168808E1,-8.533873250E0,-1.860180270E0,2.448267508E1
6.161402500E0,-2.161129034E1,-8.036433073E0,-3.560874810E0,2.333049413E1
6.171434500E0,-1.980568418E1,-6.981007724E0,-5.060581545E0,2.160113609E1
6.181467500E0,-1.653347003E1,-6.083671206E0,-5.903510306E0,1.858004630E1
6.191499500E0,-1.234721914E1,-5.009646449E0,-5.750078198E0,1.451253862E1
6.201531500E0,-8.286316758E0,-4.129268026E0,-4.448126636E0,1.027130617E1
6.211563500E0,-5.150968389E0,-3.002678554E0,-2.877604565E0,6.620359648E0
6.221596500E0,-2.477599758E0,-2.094617658E0,-1.853655070E0,3.736570729E0
6.231628500E0,4.744138420E-1,-1.388494301E0,-8.235800323E-1,1.682637509E0
6.241660500E0,3.675672610E0,-5.892826858E-1,1.496084092E0,4.011993374E0
6.251693500E0,6.568840417E0,-5.125735022E-2,4.366231995E0,7.887729304E0
6.261725500E0,9.031375408E0,2.427957628E-1,6.488619542E0,1.112325830E1
6.271757500E0,1.129045419E1,7.533747797E-1,7.704177908E0,1.368927634E1
6.281789500E0,1.334518682E1,9.817274082E-1,8.078710781E0,1.563084668E1
6.291822500E0,1.498325622E1,8.136082638E-1,7.990601428E0,1.700028343E1
6.301854500E0,1.627151010E1,6.025214399E-1,7.673664213E0,1.800028320E1
6.311886500E0,1.695895788E1,3.785371931E-1,7.193542904E0,1.842543358E1
6.321918500E0,1.665543360E1,1.180962876E-1,6.404871626E0,1.784488150E1
6.331951500E0,1.532607380E1,-3.023370096E-1,5.489450254E0,1.628232200E1
6.341983500E0,1.326764807E1,-7.207503862E-1,4.536608749E0,1.404032711E1
6.352015500E0,1.090275807E1,-9.802180226E-1,3.252630651E0,1.141974461E1
6.362047500E0,8.662925978E0,-9.919145004E-1,2.273015915E0,9.010925714E0
6.372080500E0,6.832818815E0,-9.241194702E-1,1.564304726E0,7.070251695E0
6.382112500E0,5.971902848E0,-6.487180249E-1,7.389863169E-1,6.052318521E0
6.392144500E0,6.254698756E0,1.313332144E-2,-1.419727349E-1,6.256323622E0
6.402176500E0,7.196257181E0,4.078163215E-1,-5.088340616E-1,7.225741739E0
6.412209500E0,8.101631867E0,4.984141771E-1,-2.104409990E-1,8.119676164E0
6.422241500E0,8.949652383E0,6.477880984E-1,4.421872053E-1,8.983954404E0
6.432273500E0,9.493166866E0,7.465176038E-1,1.582715270E0,9.653107961E0
6.442306500E0,9.483362255E0,7.425259289E-1,3.172728741E0,1.002754766E1
6.452338500E0,9.190822547E0,8.298471511E-1,4.423829993E0,1.023377434E1
6.462370500E0,8.985864775E0,1.042013298E0,5.106593285E0,1.038791858E1
6.472402500E0,9.294558000E0,1.215509469E0,5.539452134E0,1.088814960E1
6.482435500E0,1.029466635E1,1.198389772E0,5.391636862E0,1.168272406E1
6.492467500E0,1.195249466E1,1.414684564E0,4.986276298E0,1.302790898E1
6.502499500E0,1.317615551E1,1.730079430E0,4.738768337E0,1.410886864E1
6.512531500E0,1.306034790E1,1.713392061E0,4.529362880E0,1.392923285E1
6.522564500E0,1.175605043E1,1.623171570E0,4.532523007E0,1.270366768E1
6.532596500E0,9.699573578E0,1.363153491E0,4.192034377E0,1.065425114E1
6.542628500E0,7.853404114E0,1.142506251E0,3.877735426E0,8.832786012E0
6.552660500E0,6.974114442E0,9.155032325E-1,3.820357284E0,8.004470513E0
6.562693500E0,6.620446773E0,2.761218953E-1,3.237667041E0,7.374892992E0
6.572725500E0,5.487851626E0,8.852794133E-2,1.808324238E0,5.778787867E0
6.582757500E0,2.758165537E0,5.823291039E-1,-1.575842160E-1,2.823369813E0
6.592789500E0,-1.266078894E0,1.241440774E0,-2.151070186E0,2.787693295E0
6.602822500E0,-4.143510674E0,1.883787819E0,-3.606565538E0,5.807293021E0
6.612854500E0,-5.460436955E0,2.019919478E0,-4.759114893E0,7.519682241E0
6.622886500E0,-7.414936615E0,1.627491639E0,-6.459364167E0,9.967617543E0
6.632919500E0,-1.069229806E1,5.512726412E-1,-8.795427977E0,1.385599844E1
6.642951500E0,-1.410983774E1,-3.354507420E-1,-1.015743454E1,1.738889084E1
6.652983500E0,-1.606593486E1,-8.623601552E-1,-1.020836963E1,1.905436271E1
6.663015500E0,-1.711176785E1,-1.024513239E0,-9.247890202E0,1.947782584E1
6.673048500E0,-1.785289308E1,-1.475625854E0,-8.169603994E0,1.968871993E1
6.683080500E0,-1.916715771E1,-1.577424709E0,-6.709898647E0,2.036887192E1
6.693112500E0,-2.044561282E1,-1.557810516E0,-4.578252034E0,2.100976556E1
6.703144500E0,-2.195763262E1,-1.071368221E0,-3.250153770E0,2.222271270E1
6.713177500E0,-2.331608582E1,-4.499895106E-1,-3.564023828E0,2.359119782E1
6.723209500E0,-2.393386989E1,-5.605784118E-2,-5.152081699E0,2.448218160E1
6.733241500E0,-2.319890528E1,5.309584638E-1,-6.982925026E0,2.423287777E1
6.743273500E0,-2.107630519E1,1.273857445E0,-7.881163770E0,2.253765950E1
6.753306500E0,-1.831975115E1,1.780013043E0,-8.227154045E0,2.016104641E1
6.763338500E0,-1.493816483E1,2.017958029E0,-8.969214828E0,1.754046002E1
6.773370500E0,-1.147804223E1,2.397391162E0,-8.901356721E0,1.472165375E1
6.783402500E0,-8.911715648E0,2.647939967E0,-7.790367036E0,1.212930668E1
6.793435500E0,-6.874895963E0,3.004786475E0,-6.085068691E0,9.660279356E0
6.803467500E0,-4.444578545E0,3.008884496E0,-4.890400380E0,7.261107369E0
6.813499500E0,-1.701557881E0,2.556977172E0,-3.401527951E0,4.582992896E0
6.823532500E0,1.388510819E0,1.500603990E0,-1.266014867E0,2.404697127E0
6.833564500E0,4.824523602E0,9.182775901E-1,7.509131750E-1,4.968212185E0
6.843596500E0,7.864547737E0,4.481088998E-1,2.102497073E0,8.153061182E0
6.853628500E0,9.822853349E0,2.174163801E-2,3.542671258E0,1.044219518E1
6.863661500E0,1.102062039E1,-4.520465245E-1,5.094656779E0,1.214964804E1
6.873693500E0,1.213827707E1,-9.623876694E-1,7.151184504E0,1.412102688E1
6.883725500E0,1.294989750E1,-1.290977508E0,9.397021683E0,1.605211777E1
6.893757500E0,1.286262898E1,-1.426084881E0,1.114246233E1,1.707733613E1
6.903790500E0,1.202338162E1,-1.790219943E0,1.116283169E1,1.650379970E1
6.913822500E0,1.110838125E1,-2.178268510E0,9.054004133E0,1.449537784E1
6.923854500E0,1.024930482E1,-2.257961966E0,6.426889901E0,1.230656554E1
6.933886500E0,9.579774070E0,-2.297140357E0,4.017806939E0,1.063915869E1
6.943919500E0,9.154193834E0,-2.032360891E0,2.106705899E0,9.610825422E0
6.953951500E0,9.065988001E0,-1.758448951E0,7.992655554E-1,9.269471753E0
6.963983500E0,9.596610543E0,-1.862561110E0,3.425219992E-1,9.781686415E0
6.974015500E0,9.990773689E0,-2.075938143E0,6.255526721E-1,1.022332599E1
6.984048500E0,9.601946127E0,-2.476247882E0,1.485503555E0,1.002675889E1
6.994080500E0,8.767576520E0,-2.927804958E0,2.569047579E0,9.593875409E0
7.004112500E0,8.202263618E0,-3.228319098E0,3.503818849E0,9.485563725E0
7.014144500E0,7.978366714E0,-3.191003337E0,4.488455174E0,9.694486452E0
7.024177500E0,8.171583277E0,-3.122144186E0,5.902146735E0,1.055262497E1
7.034209500E0,8.723575053E0,-3.001852635E0,7.177694610E0,1.168893412E1
7.044241500E0,9.217723247E0,-2.702175231E0,7.802386572E0,1.237519329E1
7.054273500E0,9.563712353E0,-2.301304159E0,7.775678830E0,1.253881079E1
7.064306500E0,1.017172279E1,-1.887811434E0,7.208068557E0,1.260888690E1
7.074338500E0,1.048533704E1,-1.232312247E0,6.310251982E0,1.229960025E1
7.084370500E0,1.031307338E1,-5.732978235E-1,5.799380751E0,1.184571526E1
7.094403500E0,1.000003919E1,7.543639094E-4,5.615065988E0,1.146864204E1
7.104435500E0,9.550069630E0,8.341364492E-1,5.116597871E0,1.086642477E1
7.114467500E0,8.934108730E0,1.814903818E0,4.207942312E0,1.004086416E1
7.124499500E0,7.807758994E0,2.647854598E0,2.526053880E0,8.622829158E0
7.134532500E0,6.780663405E0,3.082540118E0,8.514329517E-1,7.496958574E0
7.144564500E0,5.100585271E0,3.241157244E0,-5.501124805E-1,6.068252972E0
7.154596500E0,3.379136916E0,3.134125131E0,-1.454756849E0,4.832972597E0
7.164628500E0,1.823362985E0,3.341996571E0,-9.945783457E-1,3.934816354E0
7.174661500E0,-4.491246343E-3,3.690597336E0,-3.624300143E-1,3.708353325E0
7.184693500E0,-1.882746722E0,3.980466328E0,-1.466189617E0,4.640965352E0
7.194725500E0,-4.676263356E0,3.992903940E0,-4.663684533E0,7.717556237E0
7.204757500E0,-7.394740916E0,3.742389049E0,-7.925797906E0,1.146760400E1
7.214790500E0,-9.757410142E0,3.045419362E0,-9.946880980E0,1.426261102E1
7.224822500E0,-1.285682035E1,2.409491098E0,-1.045937657E1,1.674819498E1
7.234854500E0,-1.510141675E1,2.134661729E0,-8.801900260E0,1.760917423E1
7.244886500E0,-1.623464691E1,2.287558963E0,-6.404445949E0,1.760152306E1
7.254919500E0,-1.759017417E1,2.725422884E0,-4.985567615E0,1.848507619E1
7.264951500E0,-1.908977916E1,2.925292409E0,-4.247660109E0,1.977421605E1
7.274983500E0,-2.001112493E1,2.700075496E0,-3.346519977E0,2.046789498E1
7.285015500E0,-2.138398100E1,2.924875210E0,-2.699744251E0,2.175127944E1
7.295048500E0,-2.300658101E1,2.856955707E0,-3.174928756E0,2.339968244E1
7.305080500E0,-2.411977626E1,3.037020129E0,-4.486190255E0,2.472069985E1
7.315112500E0,-2.462466696E1,3.457210693E0,-6.817074602E0,2.578369707E1
7.325145500E0,-2.435891569E1,3.649515676E0,-9.118365020E0,2.626443068E1
7.335177750E0,-2.239128084E1,3.815058829E0,-1.077127758E1,2.513850736E1
7.345209750E0,-1.765547821E1,3.485987180E0,-1.149793679E1,2.135580877E1
7.355241750E0,-1.190492756E1,2.680013407E0,-1.123705040E1,1.658858263E1
7.365274750E0,-6.311385757E0,1.411793701E0,-9.797516195E0,1.173959434E1
7.375306750E0,-2.295339707E0,4.807224760E-1,-6.131024882E0,6.564232215E0
7.385338750E0,-3.394361311E-1,-3.193617627E-2,-1.053611543E0,1.107399697E0
7.395370750E0,5.671360642E-1,-5.043647423E-2,3.637162848E0,3.681459050E0
7.405403750E0,1.900011796E0,-6.002523547E-1,6.020417197E0,6.341590568E0
7.415435750E0,5.418716487E0,-1.048581621E0,6.805187212E0,8.761996620E0
7.425467750E0,9.649859966E0,-1.463283259E0,7.464514571E0,1.228739082E1
7.435499750E0,1.315893546E1,-2.333007470E0,8.832320400E0,1.601906333E1
7.445532750E0,1.561036542E1,-2.998826408E0,1.048025230E1,1.903975201E1
7.455564750E0,1.666923537E1,-3.065458939E0,1.157737940E1,2.052550024E1
7.465596750E0,1.623434052E1,-3.302195744E0,1.172034266E1,2.029346547E1
7.475628750E0,1.510205527E1,-3.815632734E0,1.003085167E1,1.852698334E1
7.485661750E0,1.433494151E1,-3.728219491E0,7.320143893E0,1.652194526E1
7.495693750E0,1.302257255E1,-3.984472255E0,4.826213447E0,1.444838230E1
7.505725750E0,1.137305664E1,-4.540344243E0,2.556005365E0,1.250976845E1
7.515757750E0,9.707808212E0,-4.720103440E0,1.180371577E0,1.085883022E1
7.525790750E0,8.009404319E0,-4.890162398E0,7.992909908E-1,9.418232951E0
7.535822750E0,6.288460579E0,-5.037770972E0,9.137829816E-1,8.109184432E0
7.545854750E0,5.119910903E0,-5.009942903E0,9.761634171E-1,7.229516620E0
7.555886750E0,4.870908394E0,-4.802127011E0,1.143504297E0,6.934967519E0
7.565919750E0,5.375835346E0,-4.273734598E0,1.391787014E0,7.007245120E0
7.575951750E0,6.526921728E0,-3.839600763E0,1.914004183E0,7.810675596E0
7.585983750E0,7.483506328E0,-3.354093584E0,2.978868692E0,8.725048390E0
7.596016750E0,8.312026380E0,-2.885348617E0,3.965729005E0,9.651011643E0
7.606048750E0,8.572421020E0,-2.433923250E0,4.743394654E0,1.009505708E1
7.616080750E0,8.239878756E0,-1.988865792E0,5.326826323E0,1.001130699E1
7.626112750E0,8.004931199E0,-1.620099881E0,5.616154155E0,9.911853238E0
7.636145750E0,7.973792437E0,-1.048847670E0,5.845167958E0,9.942204771E0
7.646177750E0,8.549902807E0,-5.201020847E-1,5.735833796E0,1.030878914E1
7.656209750E0,9.790214776E0,-3.402421698E-2,5.340145696E0,1.115197826E1
7.666241750E0,1.085406713E1,3.733855037E-1,5.648072936E0,1.224136095E1
7.676274750E0,1.113946388E1,7.998448683E-1,6.413238407E0,1.287854938E1
7.686306750E0,1.054743680E1,1.211892016E0,6.542594020E0,1.247087174E1
7.696338750E0,9.535537544E0,1.596575071E0,6.274769908E0,1.152598220E1
7.706370750E0,8.347160545E0,2.070259473E0,5.689830827E0,1.031189790E1
7.716403750E0,7.879047078E0,2.600560856E0,4.892391649E0,9.632123113E0
7.726435750E0,7.397811289E0,2.877796646E0,3.822133668E0,8.810109601E0
7.736467750E0,5.988089696E0,2.499320410E0,2.601153764E0,6.990695360E0
7.746499750E0,3.495753200E0,2.844888516E0,1.490684188E0,4.747190796E0
7.756532750E0,-2.640058798E-1,3.548405038E0,1.525333911E-2,3.558245366E0
7.766564750E0,-5.072152015E0,3.758308386E0,-2.485564250E0,6.784514546E0
7.776596750E0,-9.460152901E0,3.838822499E0,-6.009132655E0,1.184654913E1
7.786628750E0,-1.303991422E1,2.971369053E0,-9.828161452E0,1.659702246E1
7.796661750E0,-1.641815125E1,1.140049104E0,-1.244999682E1,2.063632291E1
7.806693750E0,-1.932483489E1,-7.799615577E-1,-1.264000560E1,2.310470353E1
7.816725750E0,-2.177100119E1,-1.532612233E0,-1.136699541E1,2.460760000E1
7.826757750E0,-2.320618156E1,-1.917340604E0,-9.739575550E0,2.524009488E1
7.836790750E0,-2.407929014E1,-2.279073630E0,-9.304249175E0,2.591477268E1
7.846822750E0,-2.480494130E1,-2.779341229E0,-1.066662411E1,2.714381551E1
7.856854750E0,-2.479682536E1,-2.731227415E0,-1.076477313E1,2.717025012E1
7.866886750E0,-2.462619425E1,-2.136199839E0,-9.313743299E0,2.641512081E1
7.876919750E0,-2.358264168E1,-1.696640958E0,-7.359537170E0,2.476251938E1
7.886951750E0,-2.157253967E1,-1.160951365E0,-4.801387631E0,2.213087434E1
7.896983750E0,-1.910469424E1,-1.806832760E-1,-2.615753384E0,1.928377956E1
7.907015750E0,-1.661657768E1,1.025710603E0,-2.135247620E0,1.678457680E1
7.917048750E0,-1.353804203E1,1.970940130E0,-3.133110347E0,1.403494095E1
7.927080750E0,-9.209883885E0,3.239535812E0,-4.667804481E0,1.082150415E1
7.937112750E0,-4.638835328E0,3.864821558E0,-6.755382968E0,9.060399435E0
7.947144750E0,-5.507977742E-1,3.858578194E0,-8.353953255E0,9.218488968E0
7.957177750E0,2.407012755E0,3.514737063E0,-8.367935117E0,9.389857568E0
7.967209750E0,3.949671966E0,2.720204244E0,-6.548211440E0,8.116556710E0
7.977241750E0,5.105433782E0,1.553092544E0,-3.181587273E0,6.212893700E0
7.987273750E0,6.137816423E0,3.294404621E-1,8.929853126E-1,6.211178973E0
7.997306750E0,7.242998654E0,-6.168071379E-1,5.231357664E0,8.955924494E0
8.007338750E0,8.720794117E0,-1.454450747E0,9.112512542E0,1.269667523E1
8.017370750E0,1.007506130E1,-2.227898653E0,1.141112435E1,1.538454262E1
8.027403750E0,1.133597360E1,-2.559203207E0,1.198967360E1,1.669748758E1
8.037435750E0,1.236379015E1,-2.785310651E0,1.136385312E1,1.702229185E1
8.047467750E0,1.295721237E1,-3.161673411E0,9.909854071E0,1.661597842E1
8.057499750E0,1.333035594E1,-3.432572281E0,8.230581683E0,1.603818621E1
8.067532750E0,1.313532908E1,-3.793872613E0,6.640443081E0,1.519953367E1
8.077564750E0,1.221600294E1,-4.227934527E0,5.251967930E0,1.395311167E1
8.087596750E0,1.102130919E1,-4.392063532E0,4.016709124E0,1.252571078E1
8.097628750E0,9.693350971E0,-4.452291023E0,3.043475162E0,1.109264123E1
8.107661750E0,8.430034887E0,-4.571154684E0,2.305571165E0,9.862890131E0
8.117693750E0,7.587848137E0,-4.515697352E0,1.939084060E0,9.040299161E0
8.127725750E0,7.196233792E0,-4.190261794E0,1.870490373E0,8.534799877E0
8.137757750E0,7.137116103E0,-3.993894458E0,1.881166804E0,8.392163473E0
8.147790750E0,7.290600252E0,-3.708548873E0,2.155458229E0,8.458852579E0
8.157822750E0,7.548013980E0,-3.253909729E0,2.859177649E0,8.702605380E0
8.167854750E0,7.847735823E0,-2.829761769E0,3.596713272E0,9.084649447E0
8.177886750E0,8.216379966E0,-2.381143358E0,4.012431886E0,9.448722298E0
8.187919750E0,8.504258857E0,-1.981249063E0,3.838229591E0,9.538331770E0
8.197951750E0,9.099189076E0,-1.539307441E0,3.419026621E0,9.841465962E0
8.207983750E0,9.759408721E0,-8.423538338E-1,3.439987135E0,1.038215440E1
8.218015750E0,1.010401671E1,-4.626148917E-1,3.626253990E0,1.074499345E1
8.228048750E0,1.042834539E1,-1.361439380E-1,3.786803329E0,1.109544061E1
8.238080750E0,1.063225652E1,2.417035760E-1,4.146409723E0,1.141472789E1
8.248112750E0,1.034904078E1,3.479613715E-1,4.308813799E0,1.121559622E1
8.258144750E0,9.957499523E0,4.931787264E-1,4.142780356E0,1.079618688E1
8.268177750E0,9.321091495E0,6.351830363E-1,3.894280708E0,1.012183908E1
8.278209750E0,8.436712407E0,7.772458184E-1,3.748959857E0,9.264822033E0
8.288241750E0,7.040582081E0,7.154074198E-1,3.080364661E0,7.718176615E0
8.298273750E0,5.156884017E0,-5.389963388E-3,2.081528081E0,5.561136661E0
8.308306750E0,2.724662746E0,-5.334970325E-1,1.208190290E0,3.027891996E0
8.318338750E0,-5.800975871E-1,1.647201580E-1,3.189685374E-1,6.821926919E-1
8.328370292E0,-3.857582413E0,2.188835013E0,-3.732590577E-1,4.450984510E0
8.338402292E0,-6.487625515E0,5.424491197E0,-1.388368147E0,8.569828218E0
8.348435292E0,-9.896483828E0,8.578596849E0,-4.348125799E0,1.379996065E1
8.358467292E0,-1.458365049E1,8.640292575E0,-8.613491862E0,1.901393593E1
8.368499292E0,-2.032531922E1,6.089585080E0,-1.188699181E1,2.432081870E1
8.378531292E0,-2.567723127E1,3.623144733E0,-1.164762785E1,2.842735686E1
8.388564292E0,-2.876429216E1,2.490876446E0,-9.314359596E0,3.033720922E1
8.398596292E0,-2.906537465E1,2.793062890E0,-8.821686653E0,3.050277625E1
8.408628292E0,-2.705747354E1,3.607616867E0,-8.996869234E0,2.874135400E1
8.418660292E0,-2.538370104E1,4.164697475E0,-9.522882416E0,2.742922298E1
8.428693292E0,-2.471948775E1,3.518405898E0,-1.133736290E1,2.742203588E1
8.438725292E0,-2.468604167E1,2.948448260E0,-1.309453774E1,2.809912666E1
8.448757292E0,-2.492458001E1,2.811568158E0,-1.458421416E1,2.901446030E1
8.458789292E0,-2.374928498E1,2.088119647E0,-1.524078046E1,2.829611581E1
8.468822292E0,-1.964474776E1,2.073333647E0,-1.411209710E1,2.427686371E1
8.478854292E0,-1.353646562E1,2.081589330E0,-1.154413681E1,1.791189578E1
8.488886292E0,-7.173724936E0,1.575914373E0,-8.560003288E0,1.127916184E1
8.498918292E0,-4.174964601E-1,1.735378177E0,-4.388887617E0,4.737950530E0
8.508951292E0,4.984532658E0,2.481040552E0,1.825921726E-1,5.570858815E0
8.518983292E0,9.181800293E0,2.076170277E0,3.566015682E0,1.006639993E1
8.529015292E0,1.321912670E1,1.210233307E0,7.075433825E0,1.504233157E1
8.539047292E0,1.653830334E1,4.590657780E-1,1.154577754E1,2.017501420E1
8.549080292E0,1.807635144E1,-3.290731108E-1,1.541916381E1,2.376159471E1
8.559112292E0,1.750207066E1,-1.230896198E0,1.683789128E1,2.431773357E1
8.569144292E0,1.554918600E1,-1.989836138E0,1.590029259E1,2.232836621E1
8.579177292E0,1.382755405E1,-2.234111758E0,1.346621366E1,1.943016769E1
8.589209292E0,1.299951113E1,-2.503272251E0,1.030056268E1,1.677364758E1
8.599241292E0,1.252947451E1,-3.090872108E0,7.247115093E0,1.480073982E1
8.609273292E0,1.185823520E1,-3.764145369E0,4.490304941E0,1.322684282E1
8.619306292E0,1.074728294E1,-4.222469720E0,2.062175551E0,1.172970201E1
8.629338292E0,9.222401605E0,-4.662721204E0,1.483675423E-1,1.033516683E1
8.639370292E0,7.530654182E0,-4.929256589E0,-1.180417770E0,9.077538711E0
8.649402292E0,5.990619786E0,-4.938273581E0,-2.048103057E0,8.029246385E0
8.659435292E0,4.715703410E0,-5.020343345E0,-2.419409145E0,7.300359345E0
8.669467292E0,3.881857129E0,-4.952486408E0,-1.966337348E0,6.592603352E0
8.679499292E0,3.679066919E0,-4.897438088E0,-9.751255363E-1,6.202523925E0
8.689531292E0,4.403358014E0,-4.899034378E0,3.767919454E-1,6.597883888E0
8.699564292E0,5.508161345E0,-4.676811240E0,1.934646608E0,7.480325011E0
8.709596292E0,6.802990998E0,-4.280289912E0,3.395110924E0,8.725155955E0
8.719628292E0,8.044777050E0,-3.609523644E0,4.326546065E0,9.821715715E0
8.729660292E0,9.099440507E0,-2.888582420E0,4.392647084E0,1.050899968E1
8.739693292E0,1.012883230E1,-2.181856800E0,3.929528309E0,1.108128763E1
8.749725292E0,1.070374457E1,-1.307853742E0,3.652773744E0,1.138522663E1
8.759757292E0,1.087894820E1,-5.568325393E-1,3.798997990E0,1.153663566E1
8.769789292E0,1.092535405E1,1.293347092E-1,4.113529075E0,1.167481092E1
8.779822292E0,1.074480489E1,6.351115541E-1,4.335304610E0,1.160383837E1
8.789854292E0,1.061943006E1,1.084473293E0,4.560617709E0,1.160808387E1
8.799886292E0,1.065690838E1,1.475723795E0,4.622586208E0,1.170964389E1
8.809918292E0,1.056843299E1,1.562099157E0,4.367491485E0,1.154152986E1
8.819951292E0,1.029870444E1,1.575114182E0,4.248533976E0,1.125141496E1
8.829983292E0,9.729824733E0,1.784441725E0,3.972708534E0,1.066002508E1
8.840015292E0,8.546176962E0,2.419796230E0,3.554539644E0,9.566990464E0
8.850047292E0,6.372469280E0,3.231000631E0,3.688909830E0,8.040882137E0
8.860080292E0,3.246437865E0,3.752948535E0,4.031980005E0,6.393812969E0
8.870112292E0,-2.365654814E-1,3.076725939E0,3.605146711E0,4.745449245E0
8.880144292E0,-4.554452405E0,8.651378019E-1,1.607204578E0,4.906588090E0
8.890176292E0,-9.842115247E0,-1.071255808E0,-1.138442947E0,9.965484127E0
8.900209292E0,-1.528345695E1,-1.897303512E0,-3.407590929E0,1.577325245E1
8.910241292E0,-1.937670671E1,-2.574015082E0,-4.145295244E0,1.998163630E1
8.920273292E0,-2.153772301E1,-2.872089763E0,-3.705073873E0,2.204200500E1
8.930305292E0,-2.212243756E1,-2.140220677E0,-4.993570114E0,2.277978338E1
8.940338292E0,-2.238512489E1,-2.130060117E0,-7.277339351E0,2.363452222E1
8.950370292E0,-2.300018883E1,-2.885434864E0,-8.940883899E0,2.484499598E1
8.960402292E0,-2.396415846E1,-3.345082732E0,-9.929673793E0,2.615471068E1
8.970434292E0,-2.497965844E1,-3.889504994E0,-1.029949147E1,2.729818876E1
8.980467292E0,-2.506970322E1,-3.825432667E0,-9.911143967E0,2.722783005E1
8.990499292E0,-2.429115815E1,-2.952577564E0,-9.505702711E0,2.625140877E1
9.000531292E0,-2.245419688E1,-2.402420352E0,-9.680864242E0,2.456993516E1
9.010563292E0,-1.960975802E1,-1.769017793E0,-1.076803588E1,2.244153805E1
9.020596292E0,-1.670278903E1,-1.202455706E0,-1.264788648E1,2.098566400E1
9.030628292E0,-1.413193203E1,-1.002090410E0,-1.363183254E1,1.966068530E1
9.040660292E0,-1.156505932E1,-5.729502431E-1,-1.291038904E1,1.734234742E1
9.050692292E0,-8.349971302E0,-7.021453500E-2,-9.734835212E0,1.282552016E1
9.060725292E0,-4.257824324E0,1.139849568E0,-4.597594039E0,6.369159753E0
9.070757292E0,-1.523778552E-1,2.818320815E0,-8.262276515E-1,2.940884792E0
9.080789292E0,4.550145931E0,3.182564343E0,6.099862146E-1,5.586110182E0
9.090821292E0,9.894047878E0,3.083394981E0,1.596540134E0,1.048563057E1
9.100854292E0,1.402902103E1,3.444076678E0,3.431037679E0,1.484746156E1
9.110886292E0,1.640847761E1,3.392166266E0,5.405852612E0,1.760591299E1
9.120918292E0,1.745501695E1,2.499513953E0,6.643295352E0,1.884299763E1
9.130950292E0,1.761259707E1,1.301833302E0,7.874188042E0,1.933652458E1
9.140983292E0,1.699867802E1,4.977661595E-2,9.429363803E0,1.943888973E1
9.151015292E0,1.562897594E1,-1.221266491E0,1.066555056E1,1.896075815E1
9.161047292E0,1.413755705E1,-2.271651029E0,1.113666190E1,1.813990507E1
9.171079292E0,1.310682858E1,-3.145673675E0,1.065151140E1,1.717960749E1
9.181112292E0,1.213648315E1,-4.097977821E0,9.446397911E0,1.591609496E1
9.191144292E0,1.082649400E1,-4.802960240E0,7.934982712E0,1.425641435E1
9.201176292E0,9.142262006E0,-4.900044485E0,6.232729597E0,1.210116973E1
9.211208292E0,7.109041867E0,-4.492219904E0,4.304897626E0,9.447256718E0
9.221241292E0,5.459838200E0,-3.997799229E0,2.344372996E0,7.161586178E0
9.231273292E0,4.682264938E0,-3.532401209E0,8.725142106E-1,5.929818235E0
9.241305292E0,4.638207337E0,-3.079377651E0,1.651929054E-1,5.569813526E0
9.251337292E0,5.040402219E0,-2.639286965E0,-1.067046690E-1,5.690595408E0
9.261370292E0,5.682365102E0,-2.223497600E0,-3.875300646E-2,6.102025608E0
9.271402292E0,6.425659062E0,-1.765051627E0,2.854233536E-1,6.669780215E0
9.281434292E0,7.483600468E0,-1.234905780E0,6.275208449E-1,7.610719457E0
9.291466292E0,8.533944002E0,-7.684220776E-1,1.062551058E0,8.634100270E0
9.301499292E0,9.498764405E0,-4.504722713E-1,1.661270858E0,9.653459036E0
9.311531292E0,1.014708029E1,-1.341538382E-1,2.037960185E0,1.035058053E1
9.321563292E0,1.052547349E1,2.298933698E-1,2.207554289E0,1.075693912E1
9.331594875E0,1.074121587E1,3.977971905E-1,2.101417092E0,1.095207354E1
9.341627875E0,1.088616718E1,4.403522028E-1,1.933779466E0,1.106535354E1
9.351659875E0,1.068006803E1,4.797893335E-1,1.946848285E0,1.086665860E1
9.361691875E0,1.007307091E1,2.853914863E-1,2.026317501E0,1.027882136E1
9.371723875E0,9.323914531E0,1.153852992E-1,2.433614955E0,9.636969321E0
9.381756875E0,8.390949758E0,4.186504081E-2,3.116314805E0,8.951045106E0
9.391788875E0,7.474889871E0,6.759600565E-2,3.495672216E0,8.252167718E0
9.401820875E0,6.496037319E0,1.011568308E-3,3.658896364E0,7.455603562E0
9.411852875E0,5.016747308E0,2.036213914E-1,3.948303426E0,6.387355882E0
9.421885875E0,2.909265776E0,9.509012528E-1,3.868763166E0,4.933089193E0
9.431917875E0,-1.021039043E0,2.380635673E0,3.554658343E0,4.398356838E0
9.441949875E0,-6.887524779E0,4.513088324E0,3.305097425E0,8.872972039E0
9.451981875E0,-1.362526377E1,5.892879483E0,2.874200608E0,1.512067692E1
9.462014875E0,-1.878934104E1,6.481971842E0,1.495948437E0,1.993221406E1
9.472046875E0,-2.145049659E1,6.043765714E0,-1.774284380E0,2.235618467E1
9.482078875E0,-2.202605206E1,5.385200247E0,-7.083333998E0,2.375544088E1
9.492110875E0,-2.228390257E1,3.997438163E0,-1.310614797E1,2.615956690E1
9.502143875E0,-2.237434497E1,5.340101988E-1,-1.863856122E1,2.912546041E1
9.512175875E0,-2.260450541E1,-3.401468894E0,-2.160946133E1,3.145635825E1
9.522207875E0,-2.344377498E1,-6.486970042E0,-2.004770278E1,3.152144908E1
9.532239875E0,-2.545825304E1,-8.351126711E0,-1.598375341E1,3.119846692E1
9.542272875E0,-2.750799215E1,-1.012450536E1,-1.364942915E1,3.233422578E1
9.552304875E0,-2.796492632E1,-1.035870739E1,-1.142408178E1,3.193508365E1
9.562336875E0,-2.660001545E1,-9.098335383E0,-8.981936615E0,2.951297535E1
9.572368875E0,-2.398286488E1,-8.131251522E0,-8.040423213E0,2.656959662E1
9.582401875E0,-1.832535746E1,-6.576248839E0,-6.869115990E0,2.064583564E1
9.592433875E0,-1.113764540E1,-3.439583092E0,-4.805014951E0,1.260817376E1
9.602465875E0,-3.738572279E0,-7.762848285E-1,-3.740753290E0,5.345350877E0
9.612497875E0,5.084359832E0,1.190816604E0,-3.734991444E0,6.420196272E0
9.622530875E0,1.441803278E1,2.748676091E0,-2.851463125E0,1.495211462E1
9.632562875E0,2.125702859E1,3.931021395E0,-2.987485734E-1,2.161951536E1
9.642594875E0,2.379174045E1,4.342152284E0,3.662886796E0,2.446053842E1
9.652626875E0,2.304215547E1,3.832308408E0,8.302345730E0,2.479024931E1
9.662659875E0,2.112464763E1,2.561530984E0,1.233476691E1,2.459590725E1
9.672691875E0,1.858864238E1,1.237404441E0,1.537607451E1,2.415558864E1
9.682723875E0,1.625758437E1,-4.166506603E-2,1.648198062E1,2.315094967E1
9.692755875E0,1.431518026E1,-1.365798918E0,1.536172895E1,2.104216027E1
9.702788875E0,1.280724532E1,-2.476072758E0,1.266732028E1,1.818288954E1
9.712820875E0,1.147246632E1,-3.381676946E0,9.645304985E0,1.536506201E1
9.722852875E0,1.004538785E1,-3.923734303E0,6.917900480E0,1.281260532E1
9.732884875E0,8.481711409E0,-4.147618343E0,4.424481957E0,1.042680234E1
9.742917875E0,6.913930221E0,-4.180230018E0,2.435051908E0,8.438378511E0
9.752949875E0,5.651056185E0,-4.103209324E0,1.183620290E0,7.083199825E0
9.762981875E0,4.993713371E0,-3.785345326E0,2.316365710E-1,6.270539687E0
9.773013875E0,4.557139201E0,-3.560253836E0,-6.876726142E-1,5.823728934E0
9.783046875E0,4.311271968E0,-3.284383079E0,-7.761556050E-1,5.475094128E0
9.793078875E0,4.623531995E0,-3.007230319E0,-8.975329846E-2,5.516206845E0
9.803110875E0,6.089306168E0,-2.996612653E0,6.822148231E-1,6.820905663E0
9.813142875E0,7.631920356E0,-2.857358873E0,1.694233367E0,8.323528984E0
9.823175875E0,8.448346027E0,-2.713990408E0,3.041438870E0,9.380332879E0
9.833207875E0,9.030107732E0,-2.462265727E0,4.481515699E0,1.037735906E1
9.843239875E0,9.313938012E0,-2.010003623E0,5.321325263E0,1.091357221E1
9.853271875E0,9.219301411E0,-1.773454953E0,5.340525180E0,1.080101246E1
9.863304875E0,9.601623361E0,-1.448042199E0,5.161917300E0,1.099697175E1
9.873336875E0,1.073297597E1,-6.874252769E-1,4.871423826E0,1.180678182E1
9.883368875E0,1.172412113E1,-1.220549257E-1,4.289667968E0,1.248483740E1
9.893400875E0,1.254670626E1,3.298063517E-1,3.822153256E0,1.312011683E1
9.903433875E0,1.200227785E1,1.052610938E0,3.647951546E0,1.258849530E1
9.913465875E0,9.953481317E0,1.293018186E0,3.522010707E0,1.063711642E1
9.923497875E0,6.951075243E0,1.346983894E0,3.510410708E0,7.902834680E0
9.933529875E0,3.749182636E0,1.899427220E0,3.219957872E0,5.294555968E0
9.943562875E0,9.996516824E-1,2.428109071E0,2.466947300E0,3.602894132E0
9.953594875E0,-1.874965248E0,3.109360419E0,1.338921460E0,3.869926042E0
9.963626875E0,-6.149976293E0,4.707627820E0,-5.339209557E-1,7.763313705E0
9.973658875E0,-1.244120144E1,6.808665721E0,-2.791813632E0,1.445460637E1
9.983691875E0,-1.919551787E1,7.219917355E0,-4.938759484E0,2.109470214E1
9.993723875E0,-2.439979474E1,5.966947333E0,-6.166426849E0,2.586463346E1
1.000375588E1,-2.715662360E1,4.616604507E0,-7.785279958E0,2.862526553E1
1.001378787E1,-2.762375065E1,2.478971515E0,-1.061689354E1,2.969739598E1
1.002382087E1,-2.655340145E1,-7.754498461E-1,-1.381229048E1,2.994100565E1
1.003385287E1,-2.582693870E1,-4.068348809E0,-1.704661934E1,3.121168780E1
1.004388488E1,-2.626778601E1,-8.048247373E0,-1.902453593E1,3.341711889E1
1.005391688E1,-2.761887407E1,-1.166610739E1,-1.823663648E1,3.509238061E1
1.006394987E1,-2.731058079E1,-1.193872096E1,-1.240993754E1,3.228633505E1
1.007398187E1,-2.761601829E1,-1.259678064E1,-7.327127223E0,3.122515239E1
1.008401387E1,-2.684927290E1,-1.253659525E1,-3.720507013E0,2.986455840E1
1.009404588E1,-2.382845862E1,-1.033896018E1,-8.350280035E-1,2.598820520E1
1.010407888E1,-1.790301892E1,-8.175088683E0,-1.161409056E-1,1.968155609E1
1.011411088E1,-9.618094967E0,-5.813952012E0,-1.726620802E0,1.137062040E1
1.012414287E1,1.953537208E-1,-3.794502066E0,-3.394691971E0,5.095129300E0
1.013417487E1,1.028464305E1,-1.836450077E0,-3.997730817E0,1.118607542E1
1.014420788E1,1.787934120E1,3.419871982E-1,-1.905766479E0,1.798387453E1
1.015423988E1,2.169147204E1,1.425879205E0,1.964518279E0,2.182687387E1
1.016427188E1,2.237778547E1,1.408386528E0,6.471402415E0,2.333726386E1
1.017430387E1,2.154038700E1,8.442989101E-1,1.068842370E1,2.406124507E1
1.018433687E1,1.952946639E1,-6.021389589E-2,1.340358998E1,2.368670318E1
1.019436888E1,1.680127719E1,-8.372407360E-1,1.442903607E1,2.216260294E1
1.020440088E1,1.440965372E1,-1.284480667E0,1.369169633E1,1.991859833E1
1.021443288E1,1.324068772E1,-1.880500076E0,1.149512779E1,1.763491012E1
1.022446587E1,1.244073717E1,-2.554370191E0,8.626035894E0,1.535269499E1
1.023449787E1,1.152696471E1,-2.778710899E0,5.885334821E0,1.323742103E1
1.024452987E1,1.096397841E1,-2.843631949E0,3.070332886E0,1.173550209E1
1.025456188E1,1.039878655E1,-2.797107993E0,7.812122771E-1,1.079670632E1
1.026459488E1,9.643711619E0,-2.673051127E0,-5.435618448E-1,1.002206743E1
1.027462688E1,8.714983154E0,-2.527941946E0,-9.082740274E-1,9.119560492E0
1.028465887E1,7.405512657E0,-2.448326257E0,-6.343237880E-1,7.825489496E0
1.029469087E1,6.465064033E0,-2.506508684E0,-4.574700728E-2,6.934099186E0
1.030472388E1,6.136797253E0,-2.469802496E0,5.828460708E-1,6.640776644E0
1.031475588E1,6.454151959E0,-2.359047607E0,1.203939656E0,6.976435610E0
1.032478788E1,7.617844938E0,-2.501061711E0,1.513302826E0,8.159470364E0
1.033482075E1,9.189021020E0,-2.400887212E0,1.678967602E0,9.644754995E0
1.034485375E1,1.041430272E1,-2.094280127E0,2.113757202E0,1.083105165E1
1.035488575E1,1.093254378E1,-1.912443561E0,2.639524070E0,1.140811296E1
1.036491775E1,1.076422349E1,-1.625066068E0,2.958855427E0,1.128114234E1
1.037494975E1,1.025401417E1,-1.451567924E0,3.270895306E0,1.086050699E1
1.038498275E1,9.777031059E0,-1.520081650E0,3.642955100E0,1.054381840E1
1.039501475E1,9.529930065E0,-1.429526552E0,3.775384887E0,1.034971711E1
1.040504675E1,9.424521723E0,-9.461094595E-1,3.609963647E0,1.013649695E1
1.041507875E1,9.444965928E0,-4.487770173E-1,3.037035624E0,9.931382964E0
1.042511175E1,8.755001498E0,-1.314100322E-1,2.463723146E0,9.096001955E0
1.043514375E1,7.310453888E0,4.483269279E-1,2.342925810E0,7.689800675E0
1.044517575E1,4.238067167E0,1.274449183E0,2.177015451E0,4.932020916E0
1.045520775E1,3.593657809E-1,1.973874993E0,1.500180651E0,2.505168306E0
1.046524075E1,-4.575856723E0,2.333670106E0,2.572295415E-1,5.143019341E0
1.047527275E1,-1.069759330E1,2.443797297E0,-2.972383253E0,1.136862832E1
1.048530475E1,-1.664214872E1,2.850690708E0,-8.209981942E0,1.877475313E1
1.049533675E1,-2.097026243E1,3.887522496E0,-1.327686094E1,2.512249537E1
1.050536975E1,-2.290101070E1,3.353106281E0,-1.537210893E1,2.778491219E1
1.051540175E1,-2.336063693E1,2.364170352E0,-1.337999413E1,2.702467210E1
1.052543375E1,-2.333091904E1,2.403044981E0,-1.021613006E1,2.558272311E1
1.053546575E1,-2.426960298E1,1.126453962E0,-7.552966572E0,2.544267736E1
1.054549775E1,-2.655349734E1,-1.075952877E0,-5.562301884E0,2.715115279E1
1.055553075E1,-2.993652090E1,-2.552542059E0,-4.358376553E0,3.035961464E1
1.056556275E1,-3.263959280E1,-3.754491323E0,-4.312256347E0,3.313660783E1
1.057559475E1,-3.228190225E1,-4.013151094E0,-3.910947611E0,3.276464720E1
1.058562675E1,-2.837443256E1,-3.435565178E0,-3.409400350E0,2.878429332E1
1.059565975E1,-2.180768662E1,-2.828341480E0,-3.092032195E0,2.220665158E1
1.060569175E1,-1.394800435E1,-1.705548460E0,-2.205134565E0,1.422386513E1
1.061572375E1,-5.571852726E0,-4.544239658E-1,-1.232692462E0,5.724646246E0
1.062575575E1,3.076707813E0,6.282584712E-1,-5.457134740E-1,3.187262598E0
1.063578875E1,1.071308492E1,1.380818222E0,3.725635314E-1,1.080812893E1
1.064582075E1,1.620575465E1,1.734432974E0,2.226352941E0,1.644966227E1
1.065585275E1,1.882756896E1,1.665717081E0,4.870482717E0,1.951854422E1
1.066588475E1,1.846964452E1,1.214368458E0,8.152407918E0,2.022533595E1
1.067591775E1,1.734042322E1,-1.247620404E-2,1.117865777E1,2.063135532E1
1.068594975E1,1.552937681E1,-1.294319776E0,1.248368497E1,1.996695265E1
1.069598175E1,1.370293702E1,-2.407724361E0,1.211105127E1,1.844573616E1
1.070601375E1,1.239225205E1,-3.776662503E0,1.039178042E1,1.660783522E1
1.071604675E1,1.183141520E1,-4.690674403E0,7.998838985E0,1.503217340E1
1.072607875E1,1.150261106E1,-5.265691345E0,5.596422726E0,1.383320331E1
1.073611075E1,1.082912759E1,-5.579310849E0,3.250074541E0,1.260800136E1
1.074614275E1,9.836690201E0,-5.491027833E0,1.227376612E0,1.133218047E1
1.075617575E1,8.654635211E0,-5.104977114E0,-3.669069350E-1,1.005475622E1
1.076620775E1,7.675830606E0,-4.549350417E0,-1.467111138E0,9.042531714E0
1.077623975E1,7.386637845E0,-3.907073539E0,-2.080979466E0,8.611510775E0
1.078627175E1,7.359541848E0,-3.363757277E0,-2.613796613E0,8.503508215E0
1.079630475E1,7.406701396E0,-3.052061799E0,-3.185371299E0,8.620956856E0
1.080633675E1,7.618748333E0,-2.905876729E0,-3.328212053E0,8.807181229E0
1.081636875E1,7.820110652E0,-2.906691539E0,-2.766381752E0,8.789530950E0
1.082640075E1,8.003061259E0,-3.136739129E0,-1.456285311E0,8.718307679E0
1.083643375E1,7.839233971E0,-3.234575034E0,-6.625480056E-2,8.480592821E0
1.084646575E1,7.624680918E0,-3.285774131E0,1.168861917E0,8.384408680E0
1.085649775E1,7.558675209E0,-3.450163629E0,2.448782340E0,8.662201506E0
1.086652975E1,7.631490585E0,-3.642692852E0,3.289418993E0,9.073540493E0
1.087656275E1,8.338158172E0,-3.680234316E0,3.372940621E0,9.718319544E0
1.088659475E1,8.855620970E0,-3.288737500E0,3.381568480E0,1.003358473E1
1.089662675E1,8.830875553E0,-2.806073237E0,3.879505671E0,1.004534590E1
1.090665875E1,8.617342839E0,-2.257961966E0,4.374368688E0,9.924318176E0
1.091669175E1,8.177973114E0,-1.274696521E0,4.473408534E0,9.408266545E0
1.092672375E1,7.546776710E0,-5.221639591E-1,4.517148339E0,8.810852570E0
1.093675575E1,6.381323134E0,3.823201954E-2,4.552090422E0,7.838639796E0
1.094678775E1,4.808002294E0,9.257969633E-1,4.742408229E0,6.816481635E0
1.095682075E1,2.382252136E0,2.416569152E0,5.080529906E0,6.109559381E0
1.096685275E1,-9.176935995E-1,4.377836087E0,5.158344651E0,6.827600595E0
1.097688475E1,-5.444033176E0,6.453672488E0,4.059577401E0,9.368433940E0
1.098691675E1,-1.146133556E1,7.608857768E0,1.285515624E0,1.381699967E1
1.099694975E1,-1.755976514E1,7.305325879E0,-3.150271925E0,1.927789800E1
1.100698175E1,-2.199773048E1,7.013335226E0,-7.984957695E0,2.443044344E1
1.101701375E1,-2.349744540E1,7.168260128E0,-1.149701176E1,2.712370132E1
1.102704575E1,-2.256156579E1,6.532093005E0,-1.209416802E1,2.641895892E1
1.103707875E1,-2.027201366E1,4.936677876E0,-9.821029018E0,2.306031087E1
1.104711075E1,-1.856086810E1,3.318355986E0,-6.465237111E0,1.993280216E1
1.105714275E1,-1.805578444E1,1.430267833E0,-3.728031795E0,1.849203177E1
1.106717475E1,-1.914612059E1,1.488525689E-1,-2.051970698E0,1.925634115E1
1.107720775E1,-2.134795046E1,-9.019181040E-1,-1.641183918E0,2.142993070E1
1.108723975E1,-2.242135424E1,-1.429767457E0,-6.290036988E-1,2.247569813E1
1.109727175E1,-2.192049344E1,-1.122512647E0,4.447134948E-1,2.195372036E1
1.110730375E1,-1.887114241E1,-8.475531779E-1,8.435625994E-1,1.890899152E1
1.111733675E1,-1.317847335E1,1.215937266E-1,7.542066193E-1,1.320059743E1
1.112736875E1,-5.958657736E0,9.515538020E-1,-2.087897453E-1,6.037768611E0
1.113740075E1,1.217859830E0,1.139378209E0,-2.145995387E0,2.717841326E0
1.114743275E1,6.791518176E0,1.481635037E0,-4.382988068E0,8.217697118E0
1.115746575E1,9.569879996E0,1.287189535E0,-5.802395575E0,1.126531200E1
1.116749775E1,9.870781807E0,9.626341295E-1,-5.295458350E0,1.124281446E1
1.117752975E1,8.992722974E0,8.654488738E-1,-2.691046810E0,9.426547681E0
1.118756175E1,8.510677346E0,7.868478236E-1,3.391241822E-1,8.553698825E0
1.119759475E1,8.900032911E0,6.976881637E-1,3.029427519E0,9.427342451E0
1.120762675E1,9.860678988E0,4.938631430E-1,5.448163065E0,1.127649643E1
1.121765875E1,1.135081851E1,-1.569503778E-1,6.550481329E0,1.310627788E1
1.122769175E1,1.344566070E1,-1.212877418E0,6.139826696E0,1.483085753E1
1.123772375E1,1.539873130E1,-1.726216759E0,5.741647682E0,1.652474714E1
1.124775575E1,1.596774958E1,-2.005278050E0,6.111604525E0,1.721458325E1
1.125778775E1,1.475391673E1,-2.291812082E0,6.441875145E0,1.626124893E1
1.126782075E1,1.262611378E1,-2.437727010E0,6.190620289E0,1.427182686E1
1.127785275E1,1.061185675E1,-2.678399575E0,5.453110979E0,1.222790854E1
1.128788475E1,9.001296161E0,-2.716184868E0,4.461557982E0,1.040704052E1
1.129791675E1,7.899114722E0,-2.739005381E0,3.359287080E0,9.010159463E0
1.130794975E1,7.367390565E0,-2.789567132E0,2.134485143E0,8.161872049E0
1.131798175E1,7.032380776E0,-2.834647410E0,7.743362439E-1,7.621627250E0
1.132801375E1,6.805396543E0,-2.797283410E0,-6.105531022E-1,7.383155942E0
1.133804500E1,6.818061612E0,-2.693372833E0,-1.501448912E0,7.482951971E0
1.134807800E1,6.361901023E0,-2.427978824E0,-1.463603394E0,6.964983897E0
1.135811000E1,5.670516888E0,-2.071935285E0,-4.113641927E-1,6.051189809E0
1.136814200E1,4.894393736E0,-1.722166831E0,1.017941188E0,5.287452401E0
1.137817400E1,4.005548544E0,-1.591370026E0,2.477392766E0,4.971353198E0
1.138820700E1,3.744949252E0,-1.534869989E0,3.285006976E0,5.212652071E0
1.139823900E1,4.530929641E0,-1.368364822E0,2.985958149E0,5.596221204E0
1.140827100E1,5.529922342E0,-9.916588309E-1,2.120099823E0,6.004852339E0
1.141830400E1,6.405464534E0,-5.364628865E-1,1.754020270E0,6.662908931E0
1.142833600E1,5.816182725E0,3.439148059E-1,2.048904418E0,6.176104613E0
1.143836800E1,3.176639652E0,1.481894800E0,1.801374530E0,3.941066083E0
1.144840000E1,-8.002452564E-1,1.850672113E0,5.290300521E-1,2.084526933E0
1.145843300E1,-4.702350124E0,2.034515590E0,-2.253174558E0,5.597155167E0
1.146846500E1,-7.903210112E0,1.897112454E0,-6.152480655E0,1.019376201E1
1.147849700E1,-1.078222590E1,1.237450926E0,-9.890412079E0,1.468359395E1
1.148852900E1,-1.334111482E1,1.490002111E-1,-1.246563929E1,1.825923625E1
1.149856200E1,-1.518670307E1,-4.287771278E-1,-1.270012199E1,1.980184079E1
1.150859400E1,-1.633379464E1,-7.115755201E-1,-1.042354600E1,1.938941717E1
1.151862600E1,-1.735401215E1,-1.140198208E0,-7.732720506E0,1.903304379E1
1.152865800E1,-1.854393690E1,-1.852744805E0,-6.092691121E0,1.960691573E1
1.153869100E1,-2.022519618E1,-2.482382196E0,-5.156465356E0,2.101927488E1
1.154872300E1,-2.179640617E1,-3.208133925E0,-5.020897077E0,2.259612473E1
1.155875500E1,-2.161923320E1,-4.017516040E0,-5.208662281E0,2.259782826E1
1.156878700E1,-1.980712727E1,-4.716110961E0,-5.525591894E0,2.109730218E1
1.157882000E1,-1.686664555E1,-5.112865008E0,-4.789456387E0,1.826373492E1
1.158885200E1,-1.394327512E1,-5.195234735E0,-3.069342952E0,1.519296716E1
1.159888400E1,-1.115734818E1,-5.006139874E0,-1.368696067E0,1.230533151E1
1.160891600E1,-7.537781353E0,-4.439635017E0,-4.265067270E-1,8.758448196E0
1.161894900E1,-3.258863783E0,-3.358854094E0,4.427309963E-1,4.700862125E0
1.162898100E1,1.353762571E0,-1.870623251E0,1.909263553E0,2.996196215E0
1.163901300E1,6.011224204E0,7.573927671E-2,3.643094848E0,7.029416259E0
1.164904600E1,9.928723036E0,1.881507259E0,5.331695884E0,1.142569874E1
1.165907800E1,1.234902359E1,2.912648390E0,6.049170295E0,1.405611488E1
1.166911000E1,1.322917923E1,3.025984094E0,5.103944496E0,1.449889694E1
1.167914200E1,1.380133045E1,2.648335531E0,3.901510790E0,1.458465597E1
1.168917500E1,1.415482037E1,2.372042605E0,3.409723116E0,1.475166897E1
1.169920700E1,1.390566115E1,1.919085706E0,3.555130506E0,1.448065106E1
1.170923900E1,1.373201405E1,9.147464566E-1,4.388592917E0,1.444523170E1
1.171927100E1,1.402696632E1,-1.821336047E-1,5.252594751E0,1.497927596E1
1.172930400E1,1.360087738E1,-1.103314776E0,5.322153229E0,1.464672263E1
1.173933600E1,1.257516699E1,-1.704869159E0,4.595367712E0,1.349662210E1
1.174936800E1,1.090336852E1,-2.564944881E0,3.569959337E0,1.175614720E1
1.175940000E1,8.102804233E0,-3.214891552E0,2.142113421E0,8.976614843E0
1.176943300E1,5.670128049E0,-3.513040201E0,9.651001927E-1,6.739675209E0
1.177946500E1,4.169734851E0,-3.553651745E0,2.581528169E-1,5.484685253E0
1.178949700E1,3.490964915E0,-3.420004860E0,1.123291057E-1,4.888341959E0
1.179952900E1,3.750518140E0,-3.259536213E0,3.512293804E-1,4.981397868E0
1.180956200E1,4.882923253E0,-3.044782892E0,3.019502163E-1,5.762362040E0
1.181959400E1,6.603672280E0,-2.688713187E0,2.098764503E-1,7.133141966E0
1.182962600E1,7.994555900E0,-2.267590137E0,5.898296928E-1,8.330833579E0
1.183965900E1,8.874371821E0,-1.835545220E0,1.331905971E0,9.159567401E0
1.184969100E1,9.496555912E0,-1.303855416E0,2.182424710E0,9.830950653E0
1.185972300E1,9.726362597E0,-7.384523199E-1,3.020399418E0,1.021128071E1
1.186975500E1,9.559705256E0,-1.091224927E-1,3.533927040E0,1.019257144E1
1.187978800E1,9.158654675E0,7.317087261E-1,3.561439359E0,9.853943547E0
1.188982000E1,8.575384973E0,1.111162616E0,3.243940227E0,9.235532361E0
1.189985200E1,7.815279683E0,1.049244696E0,2.654011424E0,8.320053341E0
1.190988400E1,6.894929693E0,1.464418349E0,2.009618146E0,7.329607197E0
1.191991700E1,5.657852404E0,2.150766131E0,1.073413723E0,6.147300692E0
1.192994900E1,3.709568920E0,2.480093011E0,-4.936386099E-1,4.489481260E0
1.193998100E1,8.879283482E-1,1.987146419E0,-2.865788511E0,3.598598537E0
1.195001300E1,-2.414379662E0,1.339772669E0,-5.168687207E0,5.859995512E0
1.196004600E1,-7.218145064E0,1.613371637E0,-6.363685593E0,9.757104105E0
1.197007800E1,-1.168869402E1,2.288538226E0,-6.183894821E0,1.342026565E1
1.198011000E1,-1.509746638E1,3.364185001E0,-4.707524909E0,1.616824117E1
1.199014200E1,-1.806163400E1,4.150914710E0,-2.462277714E0,1.869533437E1
1.200017500E1,-2.056169174E1,3.202975803E0,-1.110339767E0,2.083926764E1
1.201020700E1,-2.172180272E1,1.639632359E0,-4.396018589E-1,2.178803243E1
1.202023900E1,-2.213891501E1,9.036525343E-1,-5.561237106E-1,2.216432763E1
1.203027100E1,-2.238882033E1,3.146060029E-1,-7.473688853E-1,2.240350002E1
1.204030400E1,-2.212049395E1,-2.664435109E-1,-9.200345322E-1,2.214122192E1
1.205033600E1,-2.129273169E1,-3.280456454E-1,-1.398705732E0,2.134114370E1
1.206036800E1,-2.019052686E1,-3.841967497E-1,-2.202559597E0,2.031394228E1
1.207040100E1,-1.886916372E1,-3.824441564E-1,-3.027594709E0,1.911433840E1
1.208043300E1,-1.699563396E1,-1.885330716E-1,-3.509876565E0,1.735529752E1
1.209046500E1,-1.425328163E1,1.408438203E-1,-3.980323363E0,1.479928540E1
1.210049700E1,-1.122794278E1,3.790827383E-1,-4.626364679E0,1.214963592E1
1.211053000E1,-7.591312028E0,3.495160000E-1,-5.116659851E0,9.161352944E0
1.212056200E1,-3.696504486E0,4.974618484E-1,-4.912135942E0,6.167713775E0
1.213059400E1,-2.407848322E-1,5.583292438E-1,-4.060141950E0,4.105418558E0
1.214062600E1,2.482964578E0,7.101620288E-1,-2.733423921E0,3.760458687E0
1.215065900E1,4.280513275E0,9.341094381E-1,-1.123816137E0,4.523087115E0
1.216069100E1,5.303376650E0,8.150316954E-1,3.600022504E-1,5.377702313E0
1.217072300E1,6.480367951E0,4.803684637E-1,2.079968336E0,6.822916599E0
1.218075500E1,8.249513213E0,-1.618107297E-2,4.099112180E0,9.211810395E0
1.219078800E1,1.036362139E1,-4.234446864E-1,5.868252765E0,1.191722889E1
1.220082000E1,1.265730868E1,-7.343477938E-1,7.160090983E0,1.456068791E1
1.221085200E1,1.459789430E1,-8.818240743E-1,7.859320911E0,1.660256176E1
1.222088400E1,1.569215978E1,-1.248546310E0,8.097782060E0,1.770245240E1
1.223091700E1,1.590003649E1,-1.747485275E0,7.953611357E0,1.786406445E1
1.224094900E1,1.511216160E1,-1.984300579E0,7.432068372E0,1.695731456E1
1.225098100E1,1.376277625E1,-2.064246050E0,6.726386626E0,1.545701779E1
1.226101300E1,1.241580932E1,-1.845697740E0,6.387798926E0,1.408413633E1
1.227104600E1,1.075602336E1,-1.318959943E0,5.881423033E0,1.232975388E1
1.228107800E1,9.265369284E0,-8.341133527E-1,4.795514688E0,1.046612508E1
1.229111000E1,8.102080348E0,-4.254894577E-1,3.259065219E0,8.743354811E0
1.230114200E1,7.783059770E0,6.754484251E-2,1.693137306E0,7.965381073E0
1.231117500E1,8.129377490E0,3.885357857E-1,2.930308735E-1,8.143930594E0
1.232120700E1,8.730680589E0,6.158245133E-1,-9.153234306E-1,8.800104565E0
1.233123900E1,9.289823509E0,6.623774131E-1,-1.697065758E0,9.466762744E0
1.234127137E1,9.541743194E0,6.015106390E-1,-2.010236196E0,9.769735298E0
1.235130437E1,8.883744907E0,7.502015689E-1,-1.953674325E0,9.126914558E0
1.236133638E1,7.878742438E0,9.562630033E-1,-1.586134721E0,8.093506329E0
1.237136838E1,7.162287197E0,7.393021397E-1,-9.929452184E-1,7.268484419E0
1.238140038E1,6.985545164E0,3.632634618E-1,-3.176441431E-1,7.002192469E0
1.239143337E1,7.366056815E0,3.126235045E-1,6.002310124E-1,7.397080757E0
1.240146537E1,8.139419498E0,1.349604616E-1,1.294133835E0,8.242763279E0
1.241149737E1,8.951122958E0,-5.451652244E-1,1.027301411E0,9.026358929E0
1.242153038E1,8.236128352E0,-1.504076066E0,1.818419749E-1,8.374313198E0
1.243156238E1,6.120601051E0,-2.284338756E0,5.248709276E-1,6.554040759E0
1.244159437E1,2.592740790E0,-2.696271005E0,1.453557293E0,4.013104900E0
1.245162637E1,-2.776599469E0,-2.462193806E0,1.276492785E0,3.924453692E0
1.246165937E1,-7.985292740E0,-1.176605239E0,-6.841739327E-2,8.071801594E0
1.247169138E1,-1.122682830E1,-3.793358862E-1,-2.782403708E0,1.157269803E1
1.248172338E1,-1.252372085E1,-7.822194600E-1,-6.524463558E0,1.414298681E1
1.249175538E1,-1.329182513E1,-1.646321574E0,-8.851683455E0,1.605413623E1
1.250178837E1,-1.621483654E1,-1.337633319E0,-9.718674093E0,1.895159131E1
1.251182037E1,-1.988334456E1,-1.292617213E0,-9.881999105E0,2.224122651E1
1.252185238E1,-2.162871504E1,-1.288685399E0,-8.656761843E0,2.333241415E1
1.253188438E1,-2.219331751E1,-7.458470012E-1,-7.040385615E0,2.329520679E1
1.254191738E1,-2.304992992E1,-1.226269003E0,-6.093229065E0,2.387321607E1
1.255194937E1,-2.390415434E1,-1.557511139E0,-5.890700226E0,2.466849782E1
1.256198137E1,-2.403783806E1,-1.632127312E0,-6.861576591E0,2.505120219E1
1.257201338E1,-2.214105743E1,-2.335697043E0,-7.701812124E0,2.355843405E1
1.258204638E1,-1.862694632E1,-3.447335331E0,-7.454502969E0,2.035723126E1
1.259207838E1,-1.444160408E1,-4.639704809E0,-6.320793343E0,1.643287003E1
1.260211037E1,-1.030665197E1,-5.453548350E0,-4.916943523E0,1.265482509E1
1.261214237E1,-6.773646746E0,-5.825054120E0,-3.368212563E0,9.547690905E0
1.262217537E1,-4.063557601E0,-5.339736975E0,-1.857322444E0,6.962394560E0
1.263220738E1,-1.614045528E0,-4.136645458E0,-5.890590298E-1,4.479282214E0
1.264223938E1,6.802481121E-1,-2.546350442E0,4.107268462E-1,2.667458456E0
1.265227138E1,3.406872599E0,-1.178743127E0,1.378534884E0,3.859608101E0
1.266230437E1,6.483126082E0,-2.492109258E-1,2.704975755E0,7.029219283E0
1.267233637E1,9.622336537E0,1.638864547E-1,4.178056608E0,1.049153832E1
1.268236838E1,1.274435618E1,5.544349616E-1,5.529434685E0,1.390326078E1
1.269240038E1,1.582390574E1,1.067928231E0,7.118914890E0,1.738434390E1
1.270243338E1,1.845692566E1,1.417372676E0,8.717481669E0,2.046122031E1
1.271246537E1,1.984687431E1,1.391753539E0,9.403517940E0,2.200594345E1
1.272249737E1,1.960638300E1,1.050079459E0,8.605611570E0,2.143757150E1
1.273252938E1,1.799241583E1,4.806918147E-1,7.002570502E0,1.931305480E1
1.274256238E1,1.576017343E1,4.150829670E-2,5.467768779E0,1.668176504E1
1.275259438E1,1.331590163E1,-3.375669955E-1,3.695960402E0,1.382343340E1
1.276262637E1,1.056799562E1,-8.016424486E-1,1.670440461E0,1.072919071E1
1.277265837E1,8.110799131E0,-9.968706735E-1,3.108862236E-2,8.171889634E0
1.278269138E1,6.011499608E0,-9.170674358E-1,-1.086881469E0,6.177414633E0
1.279272338E1,4.862097225E0,-9.442544304E-1,-1.700185247E0,5.236624459E0
1.280275538E1,5.279961475E0,-1.193027875E0,-1.843038865E0,5.718225332E0
1.281278738E1,7.058352354E0,-1.085770205E0,-1.042882194E0,7.217121183E0
1.282282037E1,8.640379114E0,-7.599254154E-1,1.647511482E-2,8.673748284E0
1.283285237E1,9.511325979E0,-7.120021476E-1,8.610671166E-1,9.576727286E0
1.284288438E1,9.463683450E0,-6.772570420E-1,1.615633632E0,9.624461210E0
1.285291638E1,8.536621442E0,-5.839906633E-1,2.239861325E0,8.844881542E0
1.286294938E1,7.326045488E0,-4.803762478E-1,3.026133198E0,7.940981423E0
1.287298137E1,6.458889958E0,-1.896260076E-1,3.988163310E0,7.593330238E0
1.288301337E1,6.324167186E0,2.890462153E-1,5.004897341E0,8.070169496E0
1.289304538E1,7.800976224E0,9.685170132E-1,5.497469126E0,9.592466942E0
1.290307838E1,1.056678992E1,2.163542589E0,4.894484660E0,1.184457453E1
1.291311038E1,1.140474153E1,3.802126250E0,4.071460698E0,1.269256025E1
1.292314237E1,9.688027081E0,5.182762039E0,3.450530834E0,1.151629516E1
1.293317437E1,6.263438004E0,5.989459698E0,2.681526082E0,9.071651737E0
1.294320738E1,1.446171382E0,5.963580506E0,1.572333246E0,6.334661472E0
1.295323938E1,-4.017356996E0,5.553287816E0,-3.417101133E-1,6.862574488E0
1.296327138E1,-9.389311545E0,5.275307676E0,-1.921476047E0,1.093984061E1
1.297330337E1,-1.428879411E1,4.883117380E0,-3.455435771E0,1.549046510E1
1.298333637E1,-1.766828478E1,4.158592105E0,-5.338544143E0,1.891988977E1
1.299336837E1,-1.889512769E1,4.311571346E0,-7.185101863E0,2.066981342E1
1.300340038E1,-1.835814397E1,3.345415146E0,-8.464424701E0,2.049047920E1
1.301343238E1,-1.753904612E1,8.458221828E-1,-9.147625072E0,1.979930803E1
1.302346537E1,-1.685540954E1,-1.894137244E0,-8.054845955E0,1.877693080E1
1.303349737E1,-1.709580963E1,-3.919758781E0,-5.778340130E0,1.846673849E1
1.304352937E1,-1.833418091E1,-5.248567189E0,-3.643558825E0,1.941559085E1
1.305356138E1,-1.963593951E1,-5.908351216E0,-1.957406018E0,2.059879057E1
1.306359438E1,-2.058409359E1,-5.884717355E0,-1.222813299E0,2.144364894E1
1.307362638E1,-2.067030494E1,-5.581943851E0,-1.970241826E0,2.150119663E1
1.308365837E1,-1.914590892E1,-5.176235377E0,-3.431487622E0,2.012794944E1
1.309369037E1,-1.624905562E1,-4.437268648E0,-4.848282593E0,1.752789222E1
1.310372338E1,-1.291715777E1,-2.976466656E0,-5.136374323E0,1.421600014E1
1.311375538E1,-1.014751298E1,-1.206437952E0,-5.779801934E0,1.174025650E1
1.312378738E1,-7.247641343E0,-3.024120001E-1,-6.763401840E0,9.917830534E0
1.313381937E1,-3.844746020E0,1.082658664E-1,-6.528281790E0,7.577087606E0
1.314385237E1,-1.176734608E-1,3.130548097E-2,-4.875079505E0,4.876599969E0
1.315388438E1,3.582922322E0,2.510014894E-1,-1.640665270E0,3.948685432E0
1.316391638E1,6.755325081E0,1.573051576E-1,2.048970492E0,7.060980239E0
1.317394838E1,9.520834136E0,-1.929623558E-1,5.534008377E0,1.101402587E1
1.318398137E1,1.206335319E1,-1.434164856E-1,8.701642147E0,1.487493309E1
1.319401337E1,1.366155393E1,6.746115424E-2,1.050399316E1,1.723300552E1
1.320404537E1,1.490361013E1,9.963114604E-2,1.056210630E1,1.826706355E1
1.321407738E1,1.633797189E1,5.612844631E-1,9.458716825E0,1.888681259E1
1.322411038E1,1.653714559E1,9.696244027E-1,7.954529954E0,1.837639526E1
1.323414238E1,1.560307979E1,8.972431820E-1,6.734721247E0,1.701815544E1
1.324417437E1,1.395570981E1,9.650437671E-1,5.903683383E0,1.518376183E1
1.325420637E1,1.208225841E1,9.835989558E-1,5.364937305E0,1.325635649E1
1.326423938E1,1.056797924E1,7.638304053E-1,4.856597918E0,1.165556371E1
1.327427138E1,9.571447635E0,6.075947034E-1,4.074737770E0,1.042042557E1
1.328430338E1,9.142286564E0,3.335293470E-1,3.051340252E0,9.643823038E0
1.329433537E1,9.248897093E0,1.064719498E-1,1.521765063E0,9.373857403E0
1.330436837E1,9.068473068E0,-1.785621985E-1,-4.782171634E-1,9.082828849E0
1.331440038E1,8.839033588E0,-7.950786567E-1,-1.992181456E0,9.095573198E0
1.332443238E1,8.800380569E0,-1.378113885E0,-2.548169804E0,9.264937420E0
1.333446425E1,8.237881347E0,-1.656677285E0,-1.641523056E0,8.561650931E0
1.334449725E1,7.555044088E0,-1.817091554E0,2.202295303E-1,7.773610096E0
1.335452925E1,6.839850091E0,-1.955663986E0,1.921247421E0,7.368810118E0
1.336456125E1,5.801445987E0,-2.105043243E0,2.922268814E0,6.828443279E0
1.337459325E1,5.263619092E0,-2.342780799E0,3.390036711E0,6.684807904E0
1.338462625E1,5.406000547E0,-2.031665365E0,3.343762431E0,6.673324004E0
1.339465825E1,5.942873177E0,-1.545394539E0,3.091652711E0,6.874903808E0
1.340469025E1,6.645640086E0,-1.104077765E0,2.960568076E0,7.358565295E0
1.341472225E1,6.292572341E0,-6.314973901E-1,2.738974683E0,6.891823992E0
1.342475525E1,4.246309987E0,-7.219890457E-1,2.171828094E0,4.823821510E0
1.343478725E1,1.080759580E0,-7.669797157E-1,1.382378552E0,1.915011649E0
1.344481925E1,-2.381642856E0,-5.125461665E-1,1.120183262E-1,2.438744425E0
1.345485125E1,-5.735922673E0,3.977723399E-1,-2.112215730E0,6.125396888E0
1.346488425E1,-8.450694854E0,1.278183654E0,-4.640599141E0,9.725387260E0
1.347491625E1,-1.093935462E1,1.508152014E0,-8.146435572E0,1.372255131E1
1.348494825E1,-1.284601470E1,1.133568708E0,-1.164734836E1,1.737716304E1
1.349498025E1,-1.418104396E1,5.959621064E-1,-1.420747455E1,2.008256736E1
1.350501325E1,-1.518903143E1,-6.458901653E-1,-1.470054101E1,2.114780735E1
1.351504525E1,-1.660565274E1,-1.789455566E0,-1.280799143E1,2.104743449E1
1.352507725E1,-1.865657299E1,-2.345124071E0,-9.965022551E0,2.128071890E1
1.353510925E1,-2.142819297E1,-3.140592152E0,-7.791410179E0,2.301601281E1
1.354514225E1,-2.340992896E1,-3.907971086E0,-5.686372783E0,2.440557001E1
1.355517425E1,-2.307953789E1,-4.090249556E0,-3.988771420E0,2.377615419E1
1.356520625E1,-2.045403982E1,-4.063825988E0,-3.400245072E0,2.112922368E1
1.357523825E1,-1.641981653E1,-4.044332541E0,-3.355733728E0,1.724030016E1
1.358527125E1,-1.134939062E1,-3.830346960E0,-2.650395505E0,1.226804066E1
1.359530325E1,-6.317404881E0,-3.077792471E0,-1.397619904E0,7.164897230E0
1.360533525E1,-2.359681299E0,-2.158204520E0,-3.070089349E-1,3.212506353E0
1.361536725E1,5.088375700E-1,-1.118003566E0,1.007869652E0,1.588914372E0
1.362540025E1,2.784164012E0,-3.574483328E-2,2.755755315E0,3.917529106E0
1.363543225E1,5.025454397E0,8.435728320E-1,4.416329477E0,6.743201989E0
1.364546425E1,7.389450940E0,1.298479778E0,5.590866117E0,9.356699144E0
1.365549625E1,9.331102513E0,1.304880140E0,6.313079696E0,1.134139152E1
1.366552925E1,1.064818667E1,7.462351833E-1,6.499429289E0,1.249733281E1
1.367556125E1,1.096331066E1,3.590263501E-2,5.642178358E0,1.233003026E1
1.368559325E1,1.098309998E1,1.270919365E-1,4.445466737E0,1.184933804E1
1.369562525E1,1.055557613E1,-7.261971407E-2,3.576391859E0,1.114522498E1
1.370565825E1,9.807727772E0,-5.806323881E-1,2.997600247E0,1.027201369E1
1.371569025E1,9.424042836E0,-9.023506518E-1,2.502968780E0,9.792429361E0
1.372572225E1,9.445229638E0,-9.581500460E-1,1.860937192E0,9.674373450E0
1.373575425E1,9.583491729E0,-1.312613375E0,1.108251142E0,9.736246104E0
1.374578725E1,9.549745109E0,-1.660363955E0,4.523403105E-1,9.703558722E0
1.375581925E1,9.371154186E0,-2.063139903E0,4.074354485E-1,9.604222024E0
1.376585125E1,8.926445369E0,-2.490057836E0,9.769852433E-1,9.318600491E0
1.377588325E1,8.668360965E0,-2.858268115E0,1.440926722E0,9.240478789E0
1.378591625E1,9.121914280E0,-2.999664314E0,1.805498864E0,9.770728339E0
1.379594825E1,9.279358748E0,-2.780936057E0,2.377468821E0,9.974590824E0
1.380598025E1,8.828079414E0,-2.688950876E0,2.800555512E0,9.644094262E0
1.381601225E1,8.160826739E0,-2.560195187E0,3.394500767E0,9.201974132E0
1.382604525E1,7.621201825E0,-2.185747829E0,3.891574909E0,8.832019367E0
1.383607725E1,7.612802299E0,-1.785336933E0,4.144646203E0,8.849874517E0
1.384610925E1,7.838585515E0,-1.461609493E0,4.338957950E0,9.077790550E0
1.385614125E1,8.185644076E0,-1.010328113E0,4.352908237E0,9.325949923E0
1.386617325E1,8.229493516E0,-4.189339980E-1,4.418983236E0,9.350266417E0
1.387620625E1,7.928818578E0,3.083901934E-1,4.647517859E0,9.195688707E0
1.388623825E1,7.199581323E0,1.305710445E0,5.187356197E0,8.969253888E0
1.389627025E1,5.825818936E0,2.463968436E0,5.946898985E0,8.681987922E0
1.390630225E1,3.985508966E0,3.520495401E0,6.163930088E0,8.140774148E0
1.391633525E1,1.514218939E0,3.541799439E0,5.473490864E0,6.693004146E0
1.392636725E1,-2.008877011E0,3.212244810E0,4.007646525E0,5.515009903E0
1.393639925E1,-4.909335126E0,3.775948851E0,1.791355619E0,6.447349537E0
1.394643125E1,-7.009383093E0,4.705142461E0,-1.624962865E0,8.597111214E0
1.395646425E1,-9.042298592E0,5.384586874E0,-5.079334735E0,1.168574264E1
1.396649625E1,-1.077543962E1,5.542709618E0,-7.495977854E0,1.424855828E1
1.397652825E1,-1.295107981E1,4.592993450E0,-8.699944700E0,1.626392003E1
1.398656025E1,-1.546510187E1,2.278478676E0,-9.302356431E0,1.819051061E1
1.399659325E1,-1.702301062E1,3.755349402E-1,-8.376957371E0,1.897623071E1
1.400662525E1,-1.820176252E1,-1.297660291E0,-6.539371619E0,1.938430969E1
1.401665725E1,-1.900447179E1,-2.739683658E0,-4.892577006E0,1.981446755E1
1.402668925E1,-1.989422038E1,-3.356186010E0,-3.712250745E0,2.051401459E1
1.403672225E1,-2.122203652E1,-3.968177527E0,-3.429290531E0,2.186049634E1
1.404675425E1,-2.206287548E1,-4.489902653E0,-2.948324299E0,2.270731857E1
1.405678625E1,-2.214913829E1,-4.583690530E0,-2.274862758E0,2.273256576E1
1.406681825E1,-2.116991444E1,-4.547684545E0,-1.175911320E0,2.168477529E1
1.407685125E1,-1.781813255E1,-3.869263980E0,4.955249217E-1,1.824013696E1
1.408688325E1,-1.328991894E1,-2.206760676E0,2.578734369E0,1.371647218E1
1.409691525E1,-8.798334628E0,-5.943146534E-1,4.025133208E0,9.693585481E0
1.410694725E1,-4.111534590E0,7.658861402E-1,4.300169860E0,5.998563086E0
1.411698025E1,-3.065215695E-1,2.174010129E0,3.986050419E0,4.550700325E0
1.412701225E1,2.594537639E0,3.020690025E0,3.128425266E0,5.063915326E0
1.413704425E1,5.186318316E0,3.095143791E0,2.824905364E0,6.667675988E0
1.414707625E1,7.621320523E0,3.022697082E0,3.791053670E0,9.032901643E0
1.415710925E1,9.600324109E0,2.607874553E0,5.214750402E0,1.123213490E1
1.416714125E1,1.118084346E1,2.123968049E0,6.500067805E0,1.310623448E1
1.417717325E1,1.212792984E1,1.657301914E0,6.912423978E0,1.405755801E1
1.418720525E1,1.206635866E1,8.453198339E-1,6.647604750E0,1.380225438E1
1.419723725E1,1.177886042E1,-1.830210659E-1,6.789495624E0,1.359677537E1
1.420727025E1,1.184674776E1,-9.031987173E-1,6.963569573E0,1.377143790E1
1.421730225E1,1.185126298E1,-1.417658897E0,6.640933077E0,1.365885000E1
1.422733425E1,1.114627589E1,-1.879615684E0,5.730836180E0,1.267339357E1
1.423736625E1,1.043404058E1,-2.103160440E0,4.508514925E0,1.155937687E1
1.424739925E1,9.574810368E0,-1.877637571E0,3.072756557E0,1.022958207E1
1.425743125E1,8.578612636E0,-1.551524029E0,1.682958473E0,8.878748267E0
1.426746325E1,7.842076887E0,-1.211674207E0,2.187186098E-1,7.938146013E0
1.427749525E1,7.627101665E0,-6.768318032E-1,-8.591919145E-1,7.705127633E0
1.428752825E1,7.812920331E0,-1.833564768E-1,-1.338377669E0,7.928845974E0
1.429756025E1,8.335332212E0,2.802225477E-1,-1.387514161E0,8.454672277E0
1.430759225E1,8.859385992E0,6.753336735E-1,-9.071431759E-1,8.931276754E0
1.431762425E1,9.197798275E0,9.583818150E-1,-2.819267187E-1,9.251890158E0
1.432765725E1,9.282606876E0,1.118400008E0,8.497173786E-2,9.350124555E0
1.433768938E1,9.669891357E0,1.289503132E0,2.474228838E-1,9.758628760E0
1.434772138E1,1.007025723E1,1.412734956E0,3.670080918E-1,1.017548995E1
1.435775337E1,9.978650072E0,1.325370099E0,6.544148210E-1,1.008753299E1
1.436778637E1,9.612104495E0,1.054148756E0,1.194641414E0,9.743251537E0
1.437781838E1,8.733442814E0,9.171331438E-1,1.955030879E0,8.996460544E0
1.438785038E1,7.501982360E0,7.204532745E-1,2.743439032E0,8.020302362E0
1.439788238E1,6.107120295E0,4.949407849E-1,3.541154198E0,7.076839530E0
1.440791537E1,4.374969197E0,8.074728535E-1,4.185549231E0,6.108288651E0
1.441794737E1,2.645212533E0,1.409084832E0,4.400448439E0,5.324154006E0
1.442797938E1,7.615764499E-1,1.751515469E0,3.610934870E0,4.084930325E0
1.443801138E1,-1.678904014E0,2.421818051E0,1.561360946E0,3.334931688E0
1.444804438E1,-4.071678799E0,2.931287267E0,-1.648214610E0,5.280873477E0
1.445807637E1,-7.216696123E0,3.077932804E0,-5.240131996E0,9.434689005E0
1.446810837E1,-1.134243594E1,2.380958001E0,-8.153605428E0,1.417043032E1
1.447814037E1,-1.582792862E1,1.041890068E0,-9.692928218E0,1.858929038E1
1.448817238E1,-1.925386373E1,1.312989351E-1,-9.683884914E0,2.155240439E1
1.449820538E1,-2.090594539E1,2.393598658E-1,-9.064144374E0,2.278759661E1
1.450823738E1,-2.171909896E1,4.624932696E-1,-8.524990160E0,2.333685105E1
1.451826937E1,-2.194112944E1,2.050149290E-1,-8.044247292E0,2.337017558E1
1.452830137E1,-2.114649751E1,-2.415828310E-1,-7.641156617E0,2.248599550E1
1.453833438E1,-2.011481712E1,-7.638233887E-1,-6.545514704E0,2.116679136E1
1.454836638E1,-1.951231651E1,-8.166455269E-1,-4.732155136E0,2.009454398E1
1.455839838E1,-1.864151758E1,3.467362337E-1,-3.365537754E0,1.894606154E1
1.456843037E1,-1.732473397E1,2.097087375E0,-2.915917276E0,1.769312737E1
1.457846337E1,-1.531687028E1,3.531591954E0,-4.183544805E0,1.626593692E1
1.458849538E1,-1.200263336E1,4.418695260E0,-6.314566643E0,1.426400460E1
1.459852738E1,-7.711922545E0,4.905401119E0,-7.485976192E0,1.181425194E1
1.460855938E1,-3.294817142E0,5.222068777E0,-7.179465732E0,9.469453549E0
1.461859237E1,7.030961072E-1,4.835214066E0,-5.242187877E0,7.166182591E0
1.462862437E1,4.238288777E0,4.358498760E0,-2.313282765E0,6.504681418E0
1.463865637E1,6.273752493E0,3.542340891E0,4.757388210E-1,7.220420815E0
1.464868838E1,7.689494964E0,1.577967915E0,2.941992642E0,8.382937209E0
1.465872138E1,9.949521582E0,-2.018146017E-1,6.411317596E0,1.183801935E1
1.466875337E1,1.206583709E1,-1.249368429E0,1.071944435E1,1.618801511E1
1.467878537E1,1.329639064E1,-2.309575923E0,1.395927310E1,1.941621618E1
1.468881737E1,1.394627591E1,-3.384563424E0,1.572601633E1,2.128993826E1
1.469884938E1,1.379369867E1,-4.297026982E0,1.575232062E1,2.137442791E1
1.470888238E1,1.351649270E1,-4.741173297E0,1.364569161E1,1.978330606E1
1.471891438E1,1.362742491E1,-4.748458927E0,1.024097020E1,1.769553736E1
1.472894637E1,1.303057972E1,-4.647323146E0,7.027323520E0,1.551698734E1
1.473897837E1,1.181809056E1,-4.666861618E0,3.836816027E0,1.327283011E1
1.474901138E1,1.089289849E1,-4.571071654E0,1.112690640E0,1.186541251E1
1.475904338E1,9.680603456E0,-4.310456282E0,-7.803281781E-1,1.062558369E1
1.476907538E1,8.485504498E0,-3.877581645E0,-1.720821826E0,9.486867436E0
1.477910737E1,7.720782246E0,-3.447433564E0,-1.765135242E0,8.637764705E0
1.478914037E1,7.311057905E0,-3.053573889E0,-1.237959342E0,8.019253364E0
1.479917238E1,7.056529192E0,-2.735989387E0,-6.168748194E-1,7.593469346E0
1.480920438E1,7.127096314E0,-2.491800306E0,-9.827766180E-2,7.550776724E0
1.481923638E1,7.600712011E0,-2.266421571E0,6.193288958E-1,7.955567742E0
1.482926937E1,8.009242351E0,-2.093996099E0,1.571878917E0,8.426362562E0
1.483930137E1,8.270549156E0,-1.959662897E0,2.349904169E0,8.818407544E0
1.484933337E1,8.369285240E0,-1.677707089E0,2.841766103E0,8.996403230E0
1.485936538E1,8.334618852E0,-1.343904604E0,3.148273639E0,9.010193000E0
1.486939838E1,8.127088305E0,-1.106296417E0,3.203767224E0,8.805542601E0
1.487943038E1,7.765072566E0,-9.548596716E-1,3.218115706E0,8.459573136E0
1.488946237E1,7.518703058E0,-5.848265228E-1,3.451821899E0,8.293852673E0
1.489949437E1,7.341680358E0,-2.018406218E-1,3.770544854E0,8.255786977E0
1.490952638E1,6.857953071E0,6.871881723E-2,4.022199660E0,7.950744160E0
1.491955938E1,5.632480751E0,6.175703457E-1,3.912987120E0,6.886051172E0
1.492959138E1,4.173736101E0,1.560971229E0,3.434807087E0,5.626242435E0
1.493962337E1,2.334085697E0,2.292081346E0,2.375503864E0,4.042846961E0
1.494965537E1,-6.470569772E-1,2.659963889E0,5.261391887E-1,2.787635749E0
1.495968838E1,-4.878404524E0,2.977237319E0,-2.475226958E0,6.228123413E0
1.496972038E1,-9.608337718E0,3.719988073E0,-6.479482098E0,1.217136612E1
1.497975238E1,-1.382545841E1,3.715242473E0,-1.038762305E1,1.768753910E1
1.498978437E1,-1.582542835E1,3.036523408E0,-1.353321808E1,2.104311404E1
1.499981737E1,-1.576681820E1,3.111750468E0,-1.518484366E1,2.211006613E1
1.500984937E1,-1.610687355E1,3.151799510E0,-1.563718309E1,2.266906947E1
1.501988138E1,-1.844218015E1,2.650403984E0,-1.489134969E1,2.385143487E1
1.502991338E1,-2.283400394E1,1.355004665E0,-1.467241122E1,2.717549309E1
1.503994637E1,-2.714018591E1,-4.821495621E-1,-1.467612771E1,3.085791445E1
1.504997837E1,-2.955941993E1,-1.570779494E0,-1.294943206E1,3.230966490E1
1.506001037E1,-2.922847454E1,-1.891347830E0,-1.016376590E1,3.100295241E1
1.507004238E1,-2.620015712E1,-1.610258725E0,-7.457566910E0,2.728839443E1
1.508007438E1,-2.115851938E1,-8.455043136E-1,-5.134978593E0,2.178912172E1
1.509010738E1,-1.508098191E1,1.250370057E-1,-4.092828763E0,1.562699257E1
1.510013937E1,-8.737599599E0,1.243794132E0,-4.497686174E0,9.905647456E0
1.511017137E1,-3.066875135E0,2.719820082E0,-4.873920587E0,6.368535645E0
1.512020338E1,1.246356236E0,3.679455759E0,-4.736944883E0,6.126209707E0
1.513023638E1,4.528774942E0,4.152541113E0,-3.777336102E0,7.212604814E0
1.514026838E1,6.954773607E0,4.417242227E0,-1.743870673E0,8.421519443E0
1.515030037E1,8.712281740E0,3.867408074E0,1.093327878E0,9.594585149E0
1.516033237E1,1.058103491E1,2.772147399E0,4.923019364E0,1.199496647E1
1.517036538E1,1.226957513E1,1.855918820E0,8.740786332E0,1.517854585E1
1.518039738E1,1.309448394E1,6.137363264E-1,1.164880899E1,1.753673096E1
1.519042938E1,1.350604606E1,-8.733898312E-1,1.334362562E1,1.900601049E1
1.520046138E1,1.343829321E1,-2.538545287E0,1.375432118E1,1.939621838E1
1.521049437E1,1.321270763E1,-3.943461054E0,1.295086697E1,1.891696284E1
1.522052637E1,1.279059245E1,-4.954764483E0,1.108931465E1,1.763864637E1
1.523055838E1,1.210451525E1,-5.486681013E0,8.739105257E0,1.590581399E1
1.524059038E1,1.098167443E1,-5.687959718E0,6.106092939E0,1.379254980E1
1.525062338E1,9.620023379E0,-5.829362349E0,3.707371536E0,1.184360245E1
1.526065537E1,8.102941643E0,-5.911156125E0,2.238357421E0,1.027665675E1
1.527068737E1,6.606881232E0,-5.833471772E0,1.738085437E0,8.983385415E0
1.528071938E1,5.442725154E0,-5.586248571E0,1.510312414E0,7.944210079E0
1.529075138E1,4.961789328E0,-5.055096856E0,1.475534930E0,7.235368746E0
1.530078438E1,5.265048151E0,-4.459290140E0,1.635478497E0,7.090894901E0
1.531081637E1,6.131780342E0,-3.917927433E0,1.587045425E0,7.447657264E0
1.532084837E1,7.117630842E0,-3.308169552E0,1.315015704E0,7.958261172E0
1.533088037E1,8.073471091E0,-2.715860347E0,1.220551304E0,8.605032154E0
1.534091362E1,8.913102608E0,-2.292104735E0,1.727581207E0,9.363849584E0
1.535094562E1,9.409135360E0,-1.893291737E0,2.547546783E0,9.930074342E0
1.536097763E1,9.377174479E0,-1.537958050E0,3.544191535E0,1.014189380E1
1.537100963E1,9.071687282E0,-1.310318051E0,4.605222901E0,1.025770547E1
1.538104263E1,8.684774684E0,-1.117152650E0,5.367007220E0,1.027025354E1
1.539107462E1,8.650142210E0,-7.779799363E-1,5.702405264E0,1.038978531E1
1.540110662E1,8.801716073E0,-4.125763205E-1,5.711979495E0,1.050081591E1
1.541113863E1,8.968865749E0,2.898879951E-1,5.642173095E0,1.059993892E1
1.542117163E1,9.856562548E0,1.472723004E0,5.681198582E0,1.147156291E1
1.543120363E1,1.123121137E1,3.216499536E0,5.761655100E0,1.302622922E1
1.544123562E1,1.128045428E1,4.842420467E0,4.914430974E0,1.322306003E1
1.545126762E1,9.262158578E0,4.444353427E0,2.199907300E0,1.050616253E1
1.546129962E1,5.148807258E0,3.369726407E0,-1.491030636E0,6.331543619E0
1.547133263E1,-5.555790424E-2,2.744542109E0,-4.878755942E0,5.598022652E0
1.548136463E1,-4.909404123E0,1.744461826E0,-7.355253500E0,9.013609152E0
1.549139663E1,-8.273549947E0,8.318045796E-1,-8.508573518E0,1.189703118E1
1.550142862E1,-1.144451897E1,2.820569654E-1,-8.965520557E0,1.454087788E1
1.551146162E1,-1.497255816E1,-5.438270161E-1,-9.481982312E0,1.773079903E1
1.552149363E1,-1.765313231E1,-1.323502206E0,-1.062545971E1,2.064667364E1
1.553152563E1,-1.938086174E1,-1.519614896E0,-1.187594993E1,2.278080811E1
1.554155763E1,-2.135199205E1,-1.272637716E0,-1.178594257E1,2.442203132E1
1.555159062E1,-2.319155884E1,-1.847975085E0,-1.101223198E1,2.573970992E1
1.556162262E1,-2.439886854E1,-2.195479789E0,-1.018527898E1,2.653045091E1
1.557165463E1,-2.482015809E1,-2.267166653E0,-8.960446928E0,2.648527707E1
1.558168663E1,-2.470723198E1,-2.518519742E0,-7.852113048E0,2.604699471E1
1.559171963E1,-2.360463890E1,-2.735558740E0,-6.451386226E0,2.462280738E1
1.560175162E1,-2.188706608E1,-2.619627457E0,-4.345625530E0,2.246754483E1
1.561178362E1,-1.956146937E1,-2.079840282E0,-2.361481656E0,1.981296079E1
1.562181562E1,-1.661181454E1,-9.967460547E-1,-1.482645144E0,1.670760670E1
1.563184763E1,-1.262673008E1,3.703579617E-1,-2.012948720E0,1.279153783E1
1.564188063E1,-7.715122141E0,2.050726995E0,-3.251959975E0,8.619967201E0
1.565191262E1,-2.400193148E0,3.408321831E0,-4.941087261E0,6.464667677E0
1.566194462E1,2.441210196E0,4.751105377E0,-5.772565420E0,7.864796313E0
1.567197662E1,5.968312658E0,5.905431116E0,-4.640538037E0,9.593198941E0
1.568200963E1,8.334158092E0,6.343549536E0,-2.050432003E0,1.067253874E1
1.569204163E1,9.852496394E0,6.070599171E0,7.324394819E-1,1.159570296E1
1.570207363E1,1.066156042E1,5.156930210E0,3.023504290E0,1.222310836E1
1.571210562E1,1.097914726E1,3.622679295E0,4.637471173E0,1.245679007E1
1.572213862E1,1.157676428E1,1.999234075E0,6.480507699E0,1.341698133E1
1.573217063E1,1.227782438E1,2.008986354E-1,8.460743878E0,1.491205951E1
1.574220263E1,1.280788384E1,-1.863082390E0,1.044779323E1,1.663338053E1
1.575223463E1,1.288923732E1,-3.300288382E0,1.185213188E1,1.781845594E1
1.576226662E1,1.235602972E1,-4.465785227E0,1.188183691E1,1.771419647E1
1.577229962E1,1.153445032E1,-5.611919017E0,1.071906545E1,1.671632565E1
1.578233162E1,1.062002648E1,-6.169774380E0,8.859331613E0,1.514393723E1
1.579236363E1,9.770027849E0,-6.151505924E0,6.684451565E0,1.334077816E1
1.580239563E1,8.849759721E0,-5.929306467E0,4.353211123E0,1.150762223E1
1.581242862E1,7.852002536E0,-5.585125905E0,2.209175137E0,9.885748833E0
1.582246062E1,6.864456929E0,-4.988113493E0,5.394980299E-1,8.502535108E0
1.583249262E1,6.487416769E0,-4.247484401E0,-4.762147844E-1,7.768814619E0
1.584252463E1,6.797715055E0,-3.547064564E0,-8.305104446E-1,7.712350134E0
1.585255763E1,7.420544094E0,-3.072641659E0,-6.670076770E-1,8.059187345E0
1.586258963E1,8.142768783E0,-2.574409184E0,-3.824663758E-3,8.540039855E0
1.587262162E1,8.700552226E0,-2.017003471E0,9.011424708E-1,8.976634658E0
1.588265362E1,9.163123117E0,-1.651866927E0,2.101751261E0,9.545095493E0
1.589268663E1,9.698384255E0,-1.196320881E0,3.293936552E0,1.031212194E1
1.590271863E1,1.031743541E1,-6.422986592E-1,3.909953292E0,1.105213806E1
1.591275063E1,1.090185760E1,-9.538153589E-2,4.076734301E0,1.163956010E1
1.592278262E1,1.117135226E1,4.069571462E-1,4.282860348E0,1.197111599E1
1.593281462E1,1.098756374E1,8.898653845E-1,4.537810645E0,1.192099588E1
1.594284763E1,1.033201602E1,1.293475877E0,4.802146600E0,1.146665805E1
1.595287963E1,9.044345702E0,1.425680546E0,5.045008655E0,1.045394024E1
1.596291163E1,7.433160047E0,1.638427979E0,5.387613977E0,9.325379289E0
1.597294363E1,5.547204373E0,1.701648221E0,5.325495497E0,7.875784742E0
1.598297662E1,3.375612214E0,2.012982195E0,4.495985511E0,5.971661482E0
1.599300862E1,1.307448530E0,2.774914594E0,3.100355707E0,4.361396356E0
1.600304063E1,-6.308514190E-1,3.509075496E0,1.213760347E0,3.766271171E0
1.601307263E1,-3.236313996E0,4.268479121E0,-9.927350110E-1,5.447858761E0
1.602310563E1,-6.908602238E0,4.794057854E0,-3.532678367E0,9.120942497E0
1.603313762E1,-1.138061592E1,4.976875144E0,-6.786352746E0,1.415423218E1
1.604316962E1,-1.580085835E1,4.406281621E0,-1.062110237E1,1.954201264E1
1.605320163E1,-1.844188896E1,3.477950767E0,-1.404643755E1,2.344145511E1
1.606323363E1,-1.908591532E1,2.929418204E0,-1.564567091E1,2.485237761E1
1.607326663E1,-1.913703519E1,2.877346410E0,-1.462825539E1,2.425883538E1
1.608329862E1,-1.927007923E1,2.282270888E0,-1.166396263E1,2.264051100E1
1.609333062E1,-1.982037005E1,1.850100109E0,-8.562337496E0,2.166987685E1
1.610336262E1,-2.031921005E1,1.573921788E0,-6.578073170E0,2.141538170E1
1.611339563E1,-2.060005182E1,1.269718201E0,-5.643029712E0,2.139668440E1
1.612342763E1,-2.076264651E1,7.093948010E-1,-5.201853198E0,2.141611561E1
1.613345962E1,-2.088205133E1,-1.890586815E-1,-4.953540076E0,2.146237103E1
1.614349162E1,-1.972291333E1,-6.931103054E-1,-4.449989266E0,2.023057381E1
1.615352462E1,-1.681644136E1,-1.014196704E0,-4.751080819E0,1.750411563E1
1.616355663E1,-1.241911182E1,-9.472349024E-1,-6.301066006E0,1.395833175E1
1.617358863E1,-6.528296408E0,-5.201746633E-1,-8.076337981E0,1.039790704E1
1.618362063E1,-7.631458426E-1,-4.066259746E-2,-8.632418715E0,8.666181275E0
1.619365262E1,4.378700305E0,8.994072365E-1,-6.694653786E0,8.049865779E0
1.620368562E1,7.870810690E0,1.755736427E0,-2.685603345E0,8.499690385E0
1.621371763E1,8.919201254E0,1.819346532E0,1.640725204E0,9.249548746E0
1.622374963E1,8.767131547E0,1.127324101E0,5.237919409E0,1.027469002E1
1.623378163E1,8.726758277E0,2.010696847E-1,7.898629403E0,1.177221668E1
1.624381462E1,9.278657082E0,-5.104674813E-1,9.375275888E0,1.320037319E1
1.625384662E1,1.059424727E1,-1.072829879E0,9.860911707E0,1.451298105E1
1.626387863E1,1.204249266E1,-1.802609755E0,9.575680434E0,1.549079363E1
1.627391063E1,1.282611546E1,-2.624699624E0,8.801601468E0,1.577550234E1
1.628394263E1,1.303237014E1,-3.284113814E0,7.920136632E0,1.559989228E1
1.629397562E1,1.260975912E1,-3.570355486E0,7.612181325E0,1.515581631E1
1.630400762E1,1.139385401E1,-3.791288144E0,7.519705271E0,1.416826533E1
1.631403962E1,9.819417526E0,-3.907254218E0,7.109420766E0,1.273701141E1
1.632407163E1,8.721172432E0,-3.809425914E0,6.350375576E0,1.144105958E1
1.633410463E1,8.295692183E0,-3.529546891E0,5.508209292E0,1.056487481E1
1.634413650E1,8.490224955E0,-3.188518855E0,4.740299138E0,1.023332830E1
1.635416850E1,9.226747255E0,-2.809852585E0,4.214419273E0,1.052565752E1
1.636420050E1,9.813304846E0,-2.430179716E0,3.812761458E0,1.080480798E1
1.637423350E1,9.904307402E0,-2.007533028E0,3.362458026E0,1.065042806E1
1.638426550E1,9.480301237E0,-1.569140081E0,3.007197575E0,1.006884052E1
1.639429750E1,8.750209705E0,-1.280359549E0,2.818326370E0,9.281619146E0
1.640432950E1,7.830164355E0,-1.040744233E0,2.619507296E0,8.322045473E0
1.641436250E1,6.762237659E0,-7.639768781E-1,2.347667317E0,7.198823561E0
1.642439450E1,5.688706407E0,-4.663541861E-1,1.786118560E0,5.980726237E0
1.643442650E1,5.513350164E0,-2.912645759E-1,1.151202449E0,5.639781216E0
1.644445850E1,6.417120373E0,-2.341583289E-1,8.153676179E-1,6.472950514E0
1.645449050E1,7.491913455E0,-1.147106767E-1,5.978488567E-1,7.516604886E0
1.646452350E1,7.663626298E0,7.662834585E-2,4.776280564E-1,7.678878075E0
1.647455550E1,6.457057441E0,7.464423940E-2,1.937188393E-1,6.460393916E0
1.648458750E1,3.733910294E0,-3.968329847E-1,-3.303814253E-1,3.769444838E0
1.649461950E1,7.885864931E-1,-8.039630623E-1,-4.470786935E-1,1.211653672E0
1.650465250E1,-1.708587404E0,-7.524916309E-1,-5.544446826E-2,1.867776395E0
1.651468450E1,-3.916887213E0,1.292646888E-1,-1.428486478E-1,3.921622182E0
1.652471650E1,-5.217834224E0,9.234319107E-1,-1.395774523E0,5.479663037E0
1.653474850E1,-6.364239909E0,1.340419078E0,-4.451515097E0,7.881386907E0
1.654478050E1,-8.343424174E0,1.849963138E0,-8.525266149E0,1.207125733E1
1.655481350E1,-1.041880742E1,2.209253490E0,-1.161126285E1,1.575607102E1
1.656484550E1,-1.180930220E1,2.574423217E0,-1.317151399E1,1.787669024E1
1.657487750E1,-1.290294553E1,3.076583852E0,-1.345518698E1,1.889426972E1
1.658490950E1,-1.418494288E1,3.298335997E0,-1.280141448E1,1.938989009E1
1.659494250E1,-1.564673744E1,3.130106632E0,-1.135158683E1,1.958255560E1
1.660497450E1,-1.689705458E1,2.842836728E0,-9.313170272E0,1.950198233E1
1.661500650E1,-1.732342536E1,2.115219153E0,-6.976064488E0,1.879469856E1
1.662503850E1,-1.697683867E1,1.718451072E0,-4.396274112E0,1.762082153E1
1.663507150E1,-1.607826079E1,1.550639199E0,-2.383285924E0,1.632773725E1
1.664510350E1,-1.448281174E1,1.345010166E0,-1.581218090E0,1.463082838E1
1.665513550E1,-1.255981454E1,1.174198671E0,-1.913890162E0,1.275894429E1
1.666516750E1,-1.040187739E1,9.769796884E-1,-2.452603496E0,1.073167305E1
1.667519950E1,-8.077815573E0,8.235528427E-1,-2.475362028E0,8.488625382E0
1.668523250E1,-5.386545691E0,6.464058897E-1,-1.554782828E0,5.643586156E0
1.669526450E1,-2.462913306E0,7.133874992E-1,-5.446769089E-2,2.564728135E0
1.670529650E1,4.530370063E-1,8.416116759E-1,1.293679799E0,1.608465158E0
1.671532850E1,2.996341342E0,8.626474728E-1,2.168596338E0,3.798030039E0
