"Time (s)","Linear Acceleration x (m/s^2)","Linear Acceleration y (m/s^2)","Linear Acceleration z (m/s^2)","Absolute acceleration (m/s^2)"
-5.486250157E-4,-8.976265401E-2,1.787037742E-1,-1.191987655E0,1.208646740E0
9.483375004E-3,-2.859428787E-1,9.788882196E-2,-1.141805681E0,1.181129021E0
1.951537502E-2,-1.583086860E-1,4.880349308E-2,-7.576991612E-1,7.755974728E-1
2.954737493E-2,-5.793713629E-2,1.249579221E-1,-4.308158326E-1,4.522979943E-1
3.957937495E-2,2.833180636E-2,8.394584388E-2,-1.897649521E-1,2.094285868E-1
4.961137497E-2,1.543471974E-1,-4.880173892E-2,-5.278047681E-2,1.702658093E-1
5.964437500E-2,2.254443696E-1,-1.387319157E-1,1.995947063E-2,2.654620287E-1
6.967637502E-2,2.985982999E-1,-9.776106030E-2,9.555578291E-2,3.284038326E-1
7.970837504E-2,2.699872890E-1,6.729005009E-2,8.953607440E-2,2.922974439E-1
8.974037494E-2,2.261255702E-1,2.156824431E-1,2.119001716E-1,3.775624088E-1
9.977237496E-2,1.719332832E-1,2.601022786E-1,4.201493418E-1,5.232014131E-1
1.098043750E-1,1.682644477E-1,1.660094690E-1,4.988043326E-1,5.519762952E-1
1.198373750E-1,1.322739583E-1,4.485428363E-2,3.866763711E-1,4.111288396E-1
1.298693750E-1,6.255117416E-2,-3.705643684E-2,1.738266116E-1,1.884184699E-1
1.399013749E-1,3.869804263E-2,-9.142238617E-2,-2.377477884E-2,1.020824731E-1
1.499333750E-1,1.896544397E-2,-9.813001961E-2,-1.405752504E-1,1.724835929E-1
1.599653750E-1,3.499880165E-2,-9.172234833E-2,-3.086914712E-1,3.239264264E-1
1.699975000E-1,5.760501444E-2,-4.881518751E-2,-4.831688780E-1,4.890331531E-1
1.800304999E-1,6.439012349E-2,9.630451888E-2,-7.422519869E-1,7.512380850E-1
1.900625000E-1,8.933960795E-2,2.870719761E-1,-1.017818981E0,1.061295135E0
2.000945000E-1,1.197082919E-1,3.813691458E-1,-1.172531630E0,1.238790912E0
2.101265000E-1,1.388354114E-1,6.514982298E-1,-1.379712514E0,1.532100465E0
2.201585000E-1,-2.830546466E-1,1.341034059E0,-2.095476614E0,2.503899862E0
2.301905000E-1,-1.379403196E0,1.623073922E0,-2.151617485E0,3.027636031E0
2.402234999E-1,-1.838562822E0,1.895581068E0,-2.165658404E0,3.415203824E0
2.502555000E-1,-1.688255758E0,1.322425003E0,-2.212926711E0,3.081567786E0
2.602875000E-1,-1.710951433E0,6.572039428E-1,-1.917590280E0,2.652625928E0
2.703195000E-1,-1.788906220E0,5.044685304E-1,-1.342281563E0,2.292682655E0
2.803515000E-1,-1.622784192E0,4.979050308E-1,-3.104216623E-1,1.725601218E0
2.903834999E-1,-1.478719908E0,5.908076397E-1,8.749106920E-1,1.816902571E0
3.004165000E-1,-1.163283820E0,8.272025286E-1,1.385881326E0,1.989512583E0
3.104485000E-1,-1.081121230E0,8.926490977E-1,1.258500318E0,1.884003338E0
3.204805000E-1,-1.182701546E0,9.000244832E-1,9.154786742E-1,1.745545250E0
3.305125000E-1,-1.217093553E0,1.032550749E0,5.974269801E-1,1.704229081E0
3.405445000E-1,-1.481840275E0,1.004824860E0,6.798265278E-1,1.915120807E0
3.505764999E-1,-1.871028025E0,7.668945656E-1,1.287790191E0,2.397347851E0
3.606095000E-1,-1.948802279E0,4.698620038E-1,1.928959606E0,2.781993132E0
3.706415000E-1,-1.708439908E0,4.519546866E-2,2.240220344E0,2.817693514E0
3.806735000E-1,-1.401860451E0,-3.159104802E-1,2.405308877E0,2.801878468E0
3.907055000E-1,-1.193178221E0,-5.672091544E-2,2.633709891E0,2.891940407E0
4.007374999E-1,-6.496505097E-1,4.774120749E-1,3.152958428E0,3.254399319E0
4.107695000E-1,1.145130408E-1,1.275508699E0,3.685816945E0,3.901958768E0
4.208025000E-1,9.491846564E-1,1.685915995E0,3.821028544E0,4.282933970E0
4.308345000E-1,1.535238656E0,1.322505695E0,3.942336050E0,4.432605619E0
4.408665000E-1,1.229578089E0,1.473183691E-1,4.387067671E0,4.558500601E0
4.508985000E-1,6.950321390E-1,-1.515122626E0,4.483960127E0,4.783781419E0
4.609304999E-1,4.657478298E-1,-2.999126663E0,4.464902297E0,5.398799339E0
4.709635000E-1,1.979324891E-1,-3.324698753E0,3.763666774E0,5.025732450E0
4.809955000E-1,-5.141003564E-2,-3.109780249E0,2.628411729E0,4.072090913E0
4.910275000E-1,1.570032951E-1,-3.404961728E0,8.099995816E-1,3.503500211E0
5.010595000E-1,4.126613244E-1,-3.926217323E0,-1.149246263E0,4.111719690E0
5.110914999E-1,4.835048736E-1,-4.658813510E0,-2.087403363E0,5.127920932E0
5.211235000E-1,4.084196080E-1,-5.547539418E0,-1.946711753E0,5.893359553E0
5.311565000E-1,1.631570511E-2,-6.181988044E0,-1.627415771E0,6.392630482E0
5.411885000E-1,-1.227123866E0,-5.987111456E0,-1.718493172E0,6.348586879E0
5.512205000E-1,-2.913576051E0,-5.409472623E0,-1.938042086E0,6.442617992E0
5.612524999E-1,-4.881018814E0,-5.081559016E0,-1.194627088E-1,7.047046050E0
5.712845000E-1,-5.036010375E0,-4.929433175E0,-1.193661128E0,7.147414835E0
5.813165000E-1,-3.819350978E0,-4.729026875E0,-1.742104229E0,6.323453505E0
5.913495000E-1,-3.551533298E0,-5.670002334E0,-1.753711537E0,6.916488949E0
6.013815000E-1,-3.382474506E0,-6.953989495E0,-1.822654302E0,7.944883409E0
6.114135000E-1,-3.352716272E0,-6.147270201E0,-1.498945427E0,7.160759368E0
6.214454999E-1,-3.370476605E0,-4.874779543E0,-1.970256152E0,6.245438130E0
6.314775000E-1,-3.119130824E0,-4.929697469E0,-2.466519284E0,6.333609683E0
6.415095000E-1,-2.228281207E0,-4.894216565E0,-2.412420260E0,5.893926063E0
6.515425000E-1,-1.491776594E0,-4.511790827E0,-2.657615647E0,5.444683168E0
6.615745000E-1,-1.906040714E0,-3.687734247E0,-2.942435861E0,5.088251553E0
6.716064999E-1,-3.098538392E0,-2.603566325E0,-2.070027192E0,4.545823396E0
6.816385000E-1,-3.350772657E0,-1.470812426E0,6.852316940E-1,3.722970463E0
6.916705000E-1,-1.939253922E0,-1.129184612E0,3.654729053E0,4.288683728E0
7.017025000E-1,4.087215436E-1,-1.112440599E0,6.056455341E0,6.171323090E0
7.117355000E-1,2.149648143E0,-9.403622313E-1,8.615775785E0,8.929549857E0
7.217675000E-1,3.431953938E0,-5.714640270E-1,1.048018798E1,1.104260925E1
7.317994999E-1,4.650073677E0,-7.274246905E-3,1.104892676E1,1.198757777E1
7.418315000E-1,5.530158570E0,5.422600354E-1,1.127764879E1,1.257227354E1
7.518635000E-1,5.669253890E0,4.029001287E-1,1.071715107E1,1.213095607E1
7.618955000E-1,4.523149044E0,-5.426036689E-1,9.202249176E0,1.026813936E1
7.719285000E-1,1.918454499E0,-1.266434551E0,6.927729650E0,7.299161749E0
7.819604999E-1,-3.140276402E-1,-6.625464707E-1,4.512134936E0,4.571317410E0
7.919925000E-1,9.749355018E-3,5.844859225E-1,2.683456832E0,2.746390252E0
8.020245000E-1,1.880785274E0,1.303399625E0,8.158696014E-1,2.429371737E0
8.120565000E-1,2.160003854E0,1.912537847E0,1.183901541E0,3.118499724E0
8.220885000E-1,1.240105562E0,1.497913978E0,1.530838480E0,2.474888794E0
8.321214999E-1,8.546764022E-1,5.890425114E-1,1.732430010E0,2.019593170E0
8.421535000E-1,-1.399463823E-1,-7.224261251E-1,1.681853934E0,1.835787883E0
8.521855000E-1,-1.182487392E0,-1.654273202E0,1.900497115E0,2.783304788E0
8.622175000E-1,-1.651864442E0,-2.399476864E0,2.319674649E0,3.723846913E0
8.722495000E-1,-1.662128060E0,-3.161250950E0,3.035856825E0,4.687494418E0
8.822815000E-1,-1.086262102E0,-3.071916604E0,4.337185074E0,5.424740671E0
8.923144999E-1,2.548967949E-1,-2.516277628E0,5.314612074E0,5.885722299E0
9.023465000E-1,2.115593082E0,-1.979120530E0,5.780746259E0,6.466040479E0
9.123785000E-1,3.274720847E0,-1.282596109E0,5.340037522E0,6.394126222E0
9.224105000E-1,3.830405432E0,-8.719438148E-1,4.841383463E0,6.234684084E0
9.324425000E-1,3.828150161E0,-7.602239889E-1,4.758149518E0,6.154076779E0
9.424745000E-1,3.791051039E0,-6.465079236E-1,4.906672304E0,6.234217960E0
9.525075000E-1,3.466811821E0,-7.233374137E-1,4.961401073E0,6.095695352E0
9.625395000E-1,2.862487466E0,-7.920971614E-1,4.929508020E0,5.755110922E0
9.725715000E-1,2.224720252E0,-1.326455489E0,4.677163242E0,5.346468027E0
9.826035000E-1,1.824495444E0,-2.386286715E0,4.096982625E0,5.080198277E0
9.926355000E-1,1.728095323E0,-3.405399100E0,3.144558903E0,4.946848206E0
1.002667500E0,2.134413807E0,-3.616050307E0,2.441459287E0,4.857187002E0
1.012700500E0,2.670746740E0,-3.245726843E0,1.814768747E0,4.578320270E0
1.022732500E0,3.369880189E0,-2.949960058E0,1.130172938E0,4.619052684E0
1.032764500E0,3.691027983E0,-3.150345308E0,6.162240243E-1,4.891635226E0
1.042796500E0,3.519710997E0,-3.715894437E0,1.595061958E-1,5.120710810E0
1.052828500E0,3.067655446E0,-4.348264378E0,-1.400843766E-1,5.323301294E0
1.062860500E0,2.539062473E0,-4.980590465E0,-2.042812496E-1,5.594180052E0
1.072893500E0,2.099369982E0,-5.097416080E0,-2.019727689E-1,5.516502335E0
1.082925500E0,1.559535153E0,-4.903206659E0,-3.796234596E-1,5.159234382E0
1.092957500E0,1.297312381E0,-4.880637576E0,-6.906684351E-1,5.097123252E0
1.102989500E0,1.088427326E0,-5.030527441E0,-1.115078497E0,5.266334630E0
1.113021500E0,9.850561550E-1,-4.999768748E0,-1.537143533E0,5.322671641E0
1.123053500E0,8.000873816E-1,-4.855778139E0,-1.798032262E0,5.239431378E0
1.133086500E0,3.718636197E-1,-4.911082858E0,-1.910781198E0,5.282811958E0
1.143118500E0,1.926587391E-1,-4.826941425E0,-2.088105614E0,5.262762199E0
1.153150500E0,2.578037381E-3,-4.385108854E0,-2.168511261E0,4.891996258E0
1.163182500E0,-7.220662290E-1,-4.077271076E0,-2.095973042E0,4.640972103E0
1.173215333E0,-1.057585895E0,-4.142147688E0,-2.196057494E0,4.806094455E0
1.183247333E0,-1.159764234E0,-4.261455445E0,-2.035618082E0,4.863002835E0
1.193280333E0,-1.152209632E0,-4.107286003E0,-1.681718863E0,4.585364073E0
1.203312333E0,-8.463365185E-1,-3.937789255E0,-1.146726698E0,4.187774091E0
1.213344333E0,3.027407598E-1,-3.837005476E0,-6.182565165E-1,3.898269374E0
1.223376333E0,1.305957490E0,-3.384919227E0,-6.932552433E-1,3.693752289E0
1.233408333E0,1.848508936E0,-2.626259953E0,-9.037162690E-1,3.336304801E0
1.243440333E0,1.881313570E0,-2.125047737E0,-1.378421448E0,3.155188477E0
1.253473333E0,1.290698596E0,-2.237925897E0,-2.245082889E0,3.422661590E0
1.263505333E0,6.723134404E-1,-2.455370398E0,-2.939119320E0,3.888350747E0
1.273537333E0,4.183302730E-1,-2.407369435E0,-2.922710863E0,3.809549397E0
1.283569333E0,4.413998777E-1,-2.317412946E0,-2.345736859E0,3.326818003E0
1.293601333E0,6.416950804E-1,-2.119043232E0,-1.524533720E0,2.688181515E0
1.303633333E0,8.968395048E-1,-1.764421297E0,-6.021754309E-1,2.068844813E0
1.313666333E0,1.133510236E0,-1.289511611E0,2.043357018E-1,1.728999343E0
1.323698333E0,1.051246929E0,-9.466525197E-1,5.573403700E-1,1.520493139E0
1.333730333E0,7.640714568E-1,-8.630285650E-1,7.837360816E-1,1.393867189E0
1.343762333E0,1.883738995E-1,-1.113737292E0,1.125845121E0,1.594811186E0
1.353794333E0,8.448764688E-1,-6.937461171E-1,-4.135932975E-1,1.168828190E0
1.363826333E0,6.873460472E-1,-7.405451846E-1,-4.411325137E-1,1.102474332E0
1.373859333E0,4.846587485E-1,-9.397498816E-1,-3.678671940E-1,1.119531248E0
1.383891333E0,3.979825473E-1,-9.333340243E-1,-5.807323024E-2,1.016304585E0
1.393923333E0,4.027971447E-1,-8.373016933E-1,2.629865639E-1,9.656508676E-1
1.403955333E0,6.456472135E-1,-4.289125639E-1,3.618574257E-1,8.554338714E-1
1.413987333E0,1.013051746E0,-1.603777233E-1,2.550005829E-1,1.056891741E0
1.424019333E0,8.366991377E-1,-4.261538476E-1,2.477933049E-2,9.393011040E-1
1.434051333E0,2.483259863E-1,-3.558407870E-1,-1.008668527E0,1.098044015E0
1.444084333E0,-1.497173721E-1,-2.742361683E-1,-1.559300679E0,1.590295374E0
1.454116333E0,-7.745356339E-1,-5.622644565E-1,-1.436641298E0,1.726263301E0
1.464148333E0,-1.034594643E0,-8.489739051E-1,-1.459059084E0,1.979898022E0
1.474180333E0,-1.097095531E0,-1.323500014E0,-1.754145838E0,2.456073800E0
1.484212333E0,-1.263492086E0,-1.245365133E0,-2.241950974E0,2.858966725E0
1.494244333E0,-1.456717420E0,-7.427431530E-1,-2.849873267E0,3.285646158E0
1.504277333E0,-1.168778302E0,-8.652180550E-1,-2.596486808E0,2.975968539E0
1.514309333E0,-1.005362658E0,-1.624462635E0,-7.641267130E-1,2.057552566E0
1.524341333E0,-1.340312805E0,-1.526286130E0,-9.979165211E-1,2.263144969E0
1.534373333E0,-5.931386322E-1,-1.547143148E0,4.061914533E-2,1.657442389E0
1.544405333E0,-3.765560102E-1,-8.542790839E-1,-3.466056946E-1,9.958527449E-1
1.554437333E0,-2.236355335E-1,-1.965021139E-1,-7.257914901E-2,3.064207328E-1
1.564470333E0,2.088268751E-1,-9.388099417E-1,4.469363138E-1,1.060530452E0
1.574502333E0,3.509726876E-1,-1.220722919E0,6.859194727E-1,1.443548335E0
1.584534333E0,3.136224282E-1,-9.937395626E-1,7.496981236E-1,1.283715164E0
1.594566333E0,2.471658987E-1,-1.100141346E0,9.136158974E-1,1.451239460E0
1.604598333E0,4.128303820E-1,-1.093909091E0,8.705439913E-1,1.457708086E0
1.614630333E0,6.670328200E-1,-9.362947619E-1,7.183292735E-1,1.355572797E0
1.624663333E0,8.282417250E-1,-8.294898131E-1,3.906650493E-1,1.235579575E0
1.634695333E0,1.112030489E0,-6.294267449E-1,-7.766271830E-2,1.280164573E0
1.644727333E0,1.099525049E0,-4.843362746E-1,-5.165921474E-1,1.307824303E0
1.654759333E0,8.051072162E-1,6.997655332E-3,-8.542925325E-1,1.173908995E0
1.664791333E0,7.406182748E-1,4.072655869E-1,-1.455172293E0,1.682827113E0
1.674823333E0,8.964483261E-2,-5.972922018E-1,-1.735526403E0,1.837619674E0
1.684856333E0,-7.117043781E-1,-1.315213047E0,-1.435539390E0,2.072940381E0
1.694888333E0,-1.123075295E0,-1.492628388E0,-8.851190534E-1,2.067044596E0
1.704920333E0,-9.933314270E-1,-1.442988743E0,-4.256585884E-1,1.802805888E0
1.714952333E0,-8.283346957E-1,-1.278207189E0,7.829275578E-2,1.525149744E0
1.724984333E0,-6.917022228E-1,-1.129714224E0,5.765845799E-1,1.444699266E0
1.735016333E0,-6.158948261E-1,-1.216028482E0,8.369412124E-1,1.599538152E0
1.745049333E0,-4.201031488E-1,-1.359345784E0,8.297329111E-1,1.647047152E0
1.755081333E0,-1.210075432E-1,-1.400818039E0,8.323824307E-1,1.633950585E0
1.765113333E0,3.801099479E-2,-1.412070713E0,9.728559396E-1,1.715178478E0
1.775145333E0,3.300168514E-2,-1.357572909E0,1.073971840E0,1.731331518E0
1.785177333E0,1.433620334E-2,-1.321308770E0,1.222558360E0,1.800197582E0
1.795209333E0,-3.176125681E-1,-1.337851420E0,1.203355519E0,1.827235253E0
1.805242333E0,-6.293539470E-1,-1.457566436E0,9.518670666E-1,1.851117829E0
1.815274333E0,-4.751827508E-1,-1.457496269E0,6.629128718E-1,1.670193850E0
1.825306333E0,-1.850924420E-1,-1.262016833E0,4.109218508E-1,1.340075545E0
1.835338333E0,2.065938234E-2,-1.107865810E0,2.303607085E-1,1.131750644E0
1.845370333E0,-2.672937691E-2,-1.041444656E0,-2.844962776E-3,1.041791498E0
1.855402333E0,-1.420873404E-2,-8.749527919E-1,-3.354746425E-1,9.371699483E-1
1.865434333E0,-1.514586729E-1,-7.123335385E-1,-5.266508201E-1,8.987323773E-1
1.875467333E0,-4.410215628E-1,-6.553769803E-1,-5.018194494E-1,9.358641808E-1
1.885499333E0,-5.612286222E-1,-7.536113727E-1,-4.088278167E-1,1.024718425E0
1.895531333E0,-6.028841865E-1,-8.683337438E-1,-2.404959798E-1,1.084117682E0
1.905563333E0,-6.607026243E-1,-8.463189769E-1,-1.172109461E-1,1.080056561E0
1.915595333E0,-6.234090829E-1,-6.463611585E-1,-8.687091351E-2,9.022018552E-1
1.925627333E0,-6.029911906E-1,-3.575619149E-1,-1.327905598E-1,7.134999872E-1
1.935660333E0,-7.208301276E-1,-8.669783592E-2,-2.703925011E-1,7.747416939E-1
1.945692333E0,-7.846986794E-1,5.619788200E-2,-4.737142226E-1,9.183220482E-1
1.955724333E0,-9.532049096E-1,4.853627533E-2,-6.180506945E-1,1.137076088E0
1.965756333E0,-1.096904912E0,-3.121916145E-2,-7.281306687E-1,1.316946959E0
1.975788333E0,-1.162060436E0,-6.794113755E-2,-7.135979989E-1,1.365365357E0
1.985820333E0,-1.220653045E0,-5.355464816E-3,-5.284640417E-1,1.330149157E0
1.995853333E0,-1.262836613E0,1.792203757E-1,-1.983396015E-1,1.290819450E0
2.005885333E0,-1.297136380E0,3.789834818E-1,1.362234601E-1,1.358215042E0
2.015917333E0,-1.368965916E0,4.491240495E-1,3.909492239E-1,1.492856787E0
2.025949333E0,-1.355015044E0,5.710729945E-1,3.171114618E-1,1.504243934E0
2.035981333E0,-1.261410477E0,7.079443261E-1,8.231505543E-2,1.448833092E0
2.046013333E0,-1.213885478E0,7.272857460E-1,-1.204617056E-1,1.420201934E0
2.056045333E0,-1.126675426E0,6.683300248E-1,-2.745700443E-1,1.338451062E0
2.066078333E0,-1.060662700E0,5.729628146E-1,-3.011947560E-1,1.242582002E0
2.076110333E0,-8.700715363E-1,4.097035834E-1,-2.676235521E-1,9.982504045E-1
2.086142333E0,-5.393348926E-1,1.794048554E-1,-1.444873300E-1,5.864680870E-1
2.096174333E0,-3.431204617E-2,-4.242593497E-2,6.693512410E-2,8.635732342E-2
2.106206333E0,6.268419832E-1,-2.056176308E-1,2.103135297E-1,6.924169717E-1
2.116238333E0,1.227583165E0,-4.703029570E-1,4.757657182E-1,1.398033733E0
2.126271333E0,1.561837494E0,-6.523989934E-1,8.905053623E-1,1.912579568E0
2.136303333E0,1.794297060E0,-7.098297608E-1,1.137275404E0,2.239811505E0
2.146335333E0,1.826854942E0,-7.095309681E-1,1.305924160E0,2.355052247E0
2.156367333E0,1.599122264E0,-7.228687593E-1,1.564000525E0,2.350708170E0
2.166399333E0,1.222620633E0,-6.436530206E-1,1.883080598E0,2.335611903E0
2.176431208E0,7.988004094E-1,-4.239278126E-1,2.097193941E0,2.283860615E0
2.186464208E0,3.460013849E-1,-1.594792986E-1,2.066678492E0,2.101501985E0
2.196496208E0,-1.190107191E-1,-9.121656418E-4,1.880370998E0,1.884133614E0
2.206528208E0,-5.061279702E-1,1.665538448E-1,1.654807346E0,1.738474347E0
2.216560208E0,-6.527235138E-1,3.511671075E-1,1.423800520E0,1.605171095E0
2.226592208E0,-6.556909758E-1,5.311014283E-1,1.203902819E0,1.470163726E0
2.236624208E0,-5.856892794E-1,6.303579140E-1,9.092470041E-1,1.251843898E0
2.246656208E0,-4.742220533E-1,5.828779382E-1,6.004834659E-1,9.618802625E-1
2.256689208E0,-3.380661285E-1,4.283085465E-1,2.901370865E-1,6.179938893E-1
2.266721208E0,-2.222438961E-1,2.602981603E-1,1.082117888E-1,3.589669523E-1
2.276753208E0,-2.352960509E-1,2.071902394E-1,1.710181940E-1,3.571263776E-1
2.286785208E0,-2.829584599E-1,2.514606786E-1,3.043303254E-1,4.857107265E-1
2.296817208E0,-1.641863072E-1,2.511919990E-1,4.635242799E-1,5.521859487E-1
2.306849208E0,2.443434477E-2,2.121989644E-1,7.613051391E-1,7.907028218E-1
2.316882208E0,2.085216504E-1,1.904590166E-1,1.026373896E0,1.064518338E0
2.326914208E0,3.585489249E-1,1.138642922E-1,1.206891331E0,1.264163396E0
2.336946208E0,4.950398952E-1,9.085111320E-3,1.330434519E0,1.419578475E0
2.346978208E0,6.014539576E-1,-6.887347609E-2,1.437640879E0,1.559904393E0
2.357010208E0,7.053934783E-1,-1.094435048E-1,1.544339409E0,1.701335372E0
2.367042208E0,7.430951554E-1,-1.800840095E-1,1.688066601E0,1.853156634E0
2.377074208E0,6.969115072E-1,-2.057553327E-1,1.737885755E0,1.883684635E0
2.387107208E0,5.621688545E-1,-2.265147024E-1,1.673096851E0,1.779493132E0
2.397139208E0,3.990724683E-1,-2.850511783E-1,1.543821930E0,1.619845413E0
2.407171208E0,1.454933435E-1,-3.793650126E-1,1.372053538E0,1.430949698E0
2.417203208E0,-4.055277944E-2,-4.456470028E-1,1.278160703E0,1.354230617E0
2.427235208E0,-1.237487179E-1,-4.321975297E-1,1.310037092E0,1.385029109E0
2.437267208E0,-1.804175931E-1,-3.880314633E-1,1.497062916E0,1.557021611E0
2.447300208E0,-2.193594646E-1,-4.500680825E-1,1.677551553E0,1.750673889E0
2.457332208E0,-3.411885417E-1,-7.098809239E-1,1.717463770E0,1.889450276E0
2.467364208E0,-3.415732884E-1,-1.052499110E0,1.621476170E0,1.963061807E0
2.477396208E0,-1.348326999E-1,-1.118855360E0,1.295664344E0,1.717196338E0
2.487428208E0,1.250567400E-1,-8.853620052E-1,9.503704718E-1,1.304878961E0
2.497460208E0,3.620104766E-1,-5.435194525E-1,6.452080876E-1,9.180187671E-1
2.507493208E0,3.911892521E-1,-2.820094568E-1,3.666990665E-1,6.058271784E-1
2.517525208E0,1.814543045E-1,-1.756477270E-1,2.029080310E-1,3.239590370E-1
2.527557208E0,-2.619552612E-3,-5.231650025E-2,1.175398520E-1,1.286837016E-1
2.537589208E0,-8.504892111E-2,6.399105102E-2,-6.462050378E-3,1.066298818E-1
2.547621208E0,-2.819603401E-1,1.638278729E-1,-1.731711388E-2,3.265594705E-1
2.557653208E0,-5.870382321E-1,3.151301327E-1,9.336921662E-2,6.727842872E-1
2.567685208E0,-8.348730522E-1,4.739489883E-1,2.607709077E-1,9.948075810E-1
2.577718208E0,-8.809496963E-1,5.930702198E-1,3.571932480E-1,1.120442622E0
2.587750208E0,-7.587621850E-1,6.511374566E-1,2.576642820E-1,1.032516791E0
2.597782208E0,-5.507550895E-1,7.192905557E-1,-1.128191024E-2,9.060007471E-1
2.607814208E0,-3.734066999E-1,7.858710462E-1,-2.598511407E-1,9.080465187E-1
2.617846208E0,-2.998820561E-1,8.285589364E-1,-4.155315033E-1,9.742205032E-1
2.627878208E0,-3.279872829E-1,9.297935352E-1,-4.094571233E-1,1.067589252E0
2.637911208E0,-4.669171268E-1,1.081132925E0,-1.555496773E-1,1.187878658E0
2.647943208E0,-6.375353712E-1,1.280641969E0,2.185347149E-1,1.447153283E0
2.657975208E0,-7.668909842E-1,1.593406611E0,5.726461878E-1,1.858760357E0
2.668007208E0,-7.971298599E-1,1.899521507E0,7.726928839E-1,2.200148236E0
2.678039208E0,-6.720824754E-1,2.044819553E0,6.373488450E-1,2.244815228E0
2.688071208E0,-5.675874692E-1,1.988615239E0,1.957717967E-1,2.077275307E0
2.698103208E0,-5.065045309E-1,1.753848946E0,-5.147993910E-1,1.896721218E0
2.708136208E0,-5.295677036E-1,1.420814347E0,-1.186683938E0,1.925454266E0
2.718168208E0,-6.461594296E-1,1.068723671E0,-1.600389941E0,2.030009915E0
2.728200208E0,-8.055440032E-1,8.007715058E-1,-1.729661939E0,2.069267157E0
2.738232208E0,-8.331165487E-1,6.387103692E-1,-1.670373218E0,1.972861072E0
2.748264208E0,-6.155773222E-1,6.409431285E-1,-1.484798381E0,1.730424736E0
2.758296208E0,-3.571479321E-2,7.739959359E-1,-1.289302573E0,1.504209553E0
2.768329208E0,7.288378894E-1,8.299581751E-1,-1.297919030E0,1.704297230E0
2.778361208E0,1.440683770E0,6.976327613E-1,-1.423222815E0,2.141920721E0
2.788393208E0,2.089161036E0,4.295081028E-1,-1.503945673E0,2.609774633E0
2.798425208E0,2.615895179E0,1.473580205E-1,-1.477792247E0,3.008071126E0
2.808457208E0,2.936271726E0,-4.203329444E-2,-1.251452377E0,3.192113954E0
2.818489208E0,2.943619922E0,-1.260001883E-1,-8.688278335E-1,3.071748052E0
2.828521208E0,2.628761392E0,-1.438897446E-1,-2.765896726E-1,2.647185782E0
2.838554208E0,2.141716395E0,-1.280470061E-1,3.402965489E-1,2.172359752E0
2.848586208E0,1.693581694E0,-7.943881005E-2,7.945386663E-1,1.872383821E0
2.858618208E0,1.369212669E0,-3.217488885E-2,9.188732752E-1,1.649274583E0
2.868650208E0,9.879835635E-1,9.732865870E-2,7.196940136E-1,1.226190794E0
2.878682208E0,6.277512252E-1,1.615185151E-1,2.002738604E-1,6.784316109E-1
2.888714208E0,3.240994692E-1,1.446434507E-1,-2.981729150E-1,4.635399454E-1
2.898747208E0,5.618647993E-2,1.408439299E-1,-5.184620869E-1,5.401822551E-1
2.908779208E0,-1.015825081E-1,1.433605716E-1,-3.761136684E-1,4.151298001E-1
2.918811208E0,-1.803304696E-1,2.086046809E-1,2.629258990E-2,2.769951109E-1
2.928843208E0,-1.681735235E-1,2.701708916E-1,4.031082165E-1,5.135862916E-1
2.938875208E0,-9.447521746E-2,3.234185609E-1,5.528247115E-1,6.474104524E-1
2.948907208E0,4.597490251E-2,3.083035085E-1,4.648267472E-1,5.596683392E-1
2.958939208E0,1.976271182E-1,2.237092084E-1,1.842343631E-1,3.507771206E-1
2.968972208E0,3.117080498E-1,1.017140704E-1,-2.410511729E-1,4.069561750E-1
2.979004208E0,3.456505519E-1,-8.804035664E-2,-6.106992826E-1,7.072333577E-1
2.989036208E0,4.084461397E-1,-3.036087790E-1,-7.934873369E-1,9.426710421E-1
2.999068208E0,4.305228871E-1,-5.078461745E-1,-7.084992269E-1,9.722288042E-1
3.009100208E0,4.012815464E-1,-7.271015587E-1,-4.920069444E-1,9.652846158E-1
3.019132208E0,3.920160484E-1,-8.618354407E-1,-3.110312346E-1,9.965828304E-1
3.029165208E0,3.965154809E-1,-9.706489080E-1,-1.599491224E-1,1.060644875E0
3.039197208E0,4.039396906E-1,-1.089592384E0,-3.656731725E-2,1.162633221E0
3.049229208E0,4.102973682E-1,-1.186111203E0,8.620286912E-2,1.258028081E0
3.059261208E0,4.064078003E-1,-1.290734264E0,2.050217995E-1,1.368647573E0
3.069293208E0,4.417758536E-1,-1.404716085E0,3.102895153E-1,1.504882975E0
3.079325208E0,3.681670099E-1,-1.476680984E0,4.700871947E-1,1.592832586E0
3.089357208E0,1.958092189E-1,-1.519007224E0,6.055835536E-1,1.646953441E0
3.099390208E0,1.188592762E-1,-1.602608374E0,7.004420561E-1,1.753026013E0
3.109422208E0,1.928815180E-1,-1.572659228E0,8.299660689E-1,1.788659834E0
3.119454208E0,2.656372529E-1,-1.477081811E0,9.050887567E-1,1.752575100E0
3.129486208E0,3.834756052E-1,-1.421803988E0,8.276441395E-1,1.689252776E0
3.139518208E0,3.482970017E-1,-1.401744822E0,5.367694268E-1,1.540883112E0
3.149550208E0,2.197512281E-1,-1.462113231E0,6.571305603E-2,1.479994563E0
3.159582208E0,1.632308722E-1,-1.488084224E0,-2.417572242E-1,1.516405464E0
3.169615208E0,6.027076006E-2,-1.368814473E0,-2.996163002E-1,1.402517577E0
3.179647208E0,-6.578526914E-2,-1.182594103E0,-2.960904291E-1,1.220871024E0
3.189679208E0,-1.780512249E-1,-1.006271608E0,-3.009070730E-1,1.065283931E0
3.199711208E0,-3.731646252E-1,-8.530269027E-1,-2.570026696E-1,9.658970475E-1
3.209743208E0,-7.103577644E-1,-7.029972893E-1,-2.031156072E-1,1.019837875E0
3.219775208E0,-1.075486561E0,-4.988285986E-1,-2.005708990E-1,1.202385129E0
3.229808208E0,-1.370472744E0,-3.709590554E-1,-3.920487928E-1,1.472925123E0
3.239840208E0,-1.536012096E0,-2.878195426E-1,-5.874057296E-1,1.669496553E0
3.249872208E0,-1.584877278E0,-1.771469530E-1,-6.215213093E-1,1.711579903E0
3.259904208E0,-1.522889190E0,-5.005070418E-2,-5.549823341E-1,1.621635579E0
3.269936208E0,-1.411121417E0,1.290129662E-2,-4.958488575E-1,1.495759402E0
3.279968208E0,-1.357750956E0,7.289139032E-2,-4.680310214E-1,1.438003425E0
3.290000208E0,-1.432661390E0,1.589644513E-1,-4.458478546E-1,1.508830231E0
3.300033208E0,-1.635439321E0,2.437549254E-1,-4.045513093E-1,1.702274948E0
3.310065208E0,-1.666372261E0,2.866726112E-1,-3.412122229E-1,1.724935790E0
3.320097208E0,-1.528059883E0,4.373579898E-1,-3.204297566E-1,1.621395771E0
3.330129208E0,-1.406613799E0,7.173981044E-1,-4.133031294E-1,1.632189295E0
3.340161208E0,-1.447813280E0,9.606872991E-1,-5.365565881E-1,1.818509377E0
3.350193208E0,-1.580615242E0,1.022777420E0,-5.792482790E-1,1.969758047E0
3.360225208E0,-1.714938065E0,9.047499105E-1,-4.900747320E-1,1.999939552E0
3.370258208E0,-1.702554247E0,6.223022050E-1,-2.838679942E-1,1.834811172E0
3.380290208E0,-1.425185725E0,4.132481655E-1,2.052621201E-2,1.484031577E0
3.390322208E0,-8.324037731E-1,4.336540711E-1,3.043045977E-1,9.866879866E-1
3.400354208E0,-2.716435128E-1,5.549224001E-1,4.349053752E-1,7.555605559E-1
3.410386208E0,3.033371758E-1,5.531053779E-1,2.874994075E-1,6.932495298E-1
3.420418208E0,8.188049036E-1,4.648135909E-1,2.598736525E-2,9.418962192E-1
3.430451208E0,1.074249290E0,4.055424124E-1,-2.507169127E-2,1.148522867E0
3.440483208E0,9.733918369E-1,2.925806379E-1,2.193828535E-1,1.039819183E0
3.450515208E0,5.131341040E-1,9.262369663E-2,5.774946991E-1,7.780654762E-1
3.460547208E0,-8.258841276E-2,-2.178000122E-1,1.033919874E0,1.059833948E0
3.470579208E0,-3.265541303E-1,-1.647482246E-1,1.495524952E0,1.539602046E0
3.480611208E0,-3.755976516E-1,2.745235589E-1,1.971312890E0,2.025465697E0
3.490643208E0,-2.812996048E-1,5.901007113E-1,2.143805313E0,2.241260702E0
3.500676208E0,4.207597911E-2,6.591846871E-1,2.110145524E0,2.211110348E0
3.510708208E0,3.506738949E-1,6.455402094E-1,1.952298768E0,2.085944587E0
3.520740208E0,5.805536699E-1,4.990674573E-1,1.714791884E0,1.877930270E0
3.530772208E0,7.125954938E-1,3.524268901E-1,1.490014536E0,1.688828105E0
3.540804208E0,7.577430153E-1,2.458426738E-1,1.322157201E0,1.543603822E0
3.550836208E0,8.176372147E-1,1.635764426E-1,1.232170013E0,1.487793941E0
3.560868208E0,8.242550933E-1,1.059837073E-1,1.228841925E0,1.483469407E0
3.570901208E0,7.546925229E-1,9.204160631E-2,1.206384670E0,1.425972101E0
3.580933208E0,7.569600731E-1,4.121994674E-2,1.200779529E0,1.420056024E0
3.590965208E0,7.893840533E-1,-7.139450312E-3,1.226623052E0,1.458691972E0
3.600997208E0,7.417672527E-1,-6.411530435E-2,1.167838362E0,1.384982263E0
3.611029208E0,6.884231043E-1,-1.785511619E-1,1.060685796E0,1.277051779E0
3.621061208E0,5.999342662E-1,-3.337462056E-1,1.006997247E0,1.218749814E0
3.631093208E0,4.604237938E-1,-4.391557163E-1,1.033827488E0,1.213938668E0
3.641126208E0,3.940923947E-1,-5.053432739E-1,1.080804019E0,1.256510234E0
3.651158208E0,3.074927920E-1,-5.197607535E-1,1.119461716E0,1.271966034E0
3.661190208E0,3.081102580E-1,-5.267358971E-1,1.161300006E0,1.311869025E0
3.671222208E0,4.750716537E-1,-5.209167480E-1,1.231929985E0,1.419400868E0
3.681254208E0,6.620007062E-1,-4.973349273E-1,1.225683112E0,1.479150451E0
3.691286208E0,7.919743699E-1,-4.855101031E-1,1.181669951E0,1.503092590E0
3.701318208E0,9.091666049E-1,-5.242619401E-1,1.059076935E0,1.490999145E0
3.711351208E0,1.065735160E0,-5.526764846E-1,9.036906874E-1,1.502630888E0
3.721383208E0,1.211498060E0,-5.778160036E-1,8.057860780E-1,1.565531886E0
3.731415208E0,1.222457496E0,-6.222104037E-1,8.296816018E-1,1.603096902E0
3.741447208E0,1.124423078E0,-6.379727429E-1,8.475273040E-1,1.545845727E0
3.751479208E0,9.203809798E-1,-5.713519067E-1,8.586671269E-1,1.382336205E0
3.761511208E0,5.978532422E-1,-4.645127517E-1,9.578280106E-1,1.220915678E0
3.771543208E0,2.473068166E-1,-3.589395189E-1,1.062335881E0,1.148283834E0
3.781576208E0,-1.853625834E-1,-2.562302524E-1,9.479310134E-1,9.992929679E-1
3.791608208E0,-6.042103350E-1,-2.274525958E-1,6.880102909E-1,9.434844846E-1
3.801640208E0,-9.988664013E-1,-1.820629996E-1,4.222353360E-1,1.099619799E0
3.811672208E0,-1.270889398E0,6.669918895E-3,2.774272862E-1,1.300834444E0
3.821704208E0,-1.402559339E0,2.924794811E-1,2.345093080E-1,1.451795978E0
3.831736208E0,-1.408512390E0,5.963867605E-1,1.717330161E-1,1.539180480E0
3.841769208E0,-1.252156089E0,7.992559075E-1,1.350370601E-1,1.491623238E0
3.851801208E0,-9.359819359E-1,8.909186143E-1,1.700580812E-1,1.303348730E0
3.861833208E0,-5.901372564E-1,9.368186724E-1,1.500065169E-1,1.117315158E0
3.871865208E0,-4.394603562E-1,1.029998732E0,-2.535206527E-2,1.120118529E0
3.881897208E0,-5.384566408E-1,1.130559731E0,-2.578879380E-1,1.278517520E0
3.891929208E0,-7.822668225E-1,1.284636787E0,-4.354585218E-1,1.565840726E0
3.901961208E0,-1.127996312E0,1.572327399E0,-5.380683857E-1,2.008508580E0
3.911993208E0,-1.345176519E0,1.805151832E0,-5.414986548E-1,2.315446781E0
3.922026208E0,-1.176979022E0,1.953058321E0,-5.610695779E-1,2.348300555E0
3.932058208E0,-7.291004294E-1,2.148673997E0,-5.764056551E-1,2.341074723E0
3.942090208E0,-4.958415484E-1,2.334938806E0,-5.569744805E-1,2.451125994E0
3.952122208E0,-5.073132008E-1,2.260224838E0,-5.344039357E-1,2.377303214E0
3.962154208E0,-7.446733189E-1,1.880753991E0,-3.808469895E-1,2.058353312E0
3.972186208E0,-1.002926123E0,1.426096721E0,-1.031694424E-1,1.746498383E0
3.982218208E0,-1.013410181E0,1.076503392E0,1.851289871E-1,1.490010902E0
3.992251208E0,-7.787304264E-1,9.579171807E-1,3.189767236E-1,1.275057862E0
4.002283208E0,-3.798573482E-1,9.772024673E-1,1.490446499E-1,1.058976192E0
4.012315208E0,2.906703526E-1,9.142291242E-1,-2.413800788E-1,9.892262066E-1
4.022347208E0,1.091129032E0,8.266097671E-1,-7.059358075E-1,1.540192078E0
4.032379208E0,1.846210395E0,7.333209497E-1,-1.107651802E0,2.274454869E0
4.042411208E0,2.480233344E0,4.601220775E-1,-1.480688666E0,2.925014306E0
4.052444208E0,2.922874001E0,1.057515728E-1,-1.754631304E0,3.410734060E0
4.062476208E0,2.933760931E0,-1.567781773E-1,-1.904217990E0,3.501082512E0
4.072508208E0,2.440072328E0,-2.093633571E-1,-1.725133562E0,2.995642133E0
4.082540208E0,1.673201224E0,-2.044832709E-1,-1.173989633E0,2.054182904E0
4.092572208E0,1.070681904E0,-2.733903685E-1,-4.495187366E-1,1.192966524E0
4.102604208E0,7.179497892E-1,-2.834850016E-1,1.902160648E-1,7.949828911E-1
4.112636208E0,7.133170402E-1,-1.630244654E-1,2.946157613E-1,7.887944111E-1
4.122669208E0,9.336161524E-1,-6.264531434E-2,8.176132411E-2,9.392808257E-1
4.132701208E0,1.269681948E0,-1.671426594E-2,-2.812610132E-1,1.300568866E0
4.142733208E0,1.518224866E0,-7.579774886E-2,-6.009885192E-1,1.634606755E0
4.152765208E0,1.423307015E0,-1.323219055E-1,-7.991085577E-1,1.637646614E0
4.162797208E0,1.136809235E0,-1.153009531E-1,-8.527205086E-1,1.425749562E0
4.172828708E0,8.866542399E-1,-9.103997827E-2,-7.002809653E-1,1.133506704E0
4.182860708E0,6.197405398E-1,-1.078141782E-1,-3.719799793E-1,7.308018464E-1
4.192893708E0,3.203239220E-1,-1.772405085E-1,-9.614547461E-2,3.785043793E-1
4.202925708E0,4.614622593E-2,-2.790601212E-1,4.252007514E-2,2.860279395E-1
4.212957708E0,-1.039488763E-1,-4.117860693E-1,-3.245935589E-2,4.259421856E-1
4.222989708E0,2.046467006E-2,-5.996647096E-1,-2.404035938E-1,6.463825914E-1
4.233021708E0,2.230747855E-1,-7.974286526E-1,-3.655553511E-1,9.051439282E-1
4.243053708E0,3.644236225E-1,-9.703445604E-1,-4.075804594E-1,1.113775100E0
4.253085708E0,3.991882432E-1,-1.107892707E0,-3.668101636E-1,1.233420934E0
4.263117708E0,2.777585310E-1,-1.258622232E0,-2.616105679E-1,1.315188129E0
4.273150708E0,1.183704489E-1,-1.417653342E0,-1.733667281E-1,1.433111504E0
4.283182708E0,-1.838949323E-3,-1.552638069E0,3.184715241E-2,1.552965742E0
4.293214708E0,-1.735161245E-2,-1.581510743E0,1.955767921E-1,1.593652280E0
4.303246708E0,4.720340252E-2,-1.520880087E0,2.818986520E-1,1.547504847E0
4.313278708E0,1.349975914E-1,-1.448538043E0,2.836305973E-1,1.482205494E0
4.323310708E0,2.748004246E-1,-1.432682733E0,2.663298556E-1,1.482911554E0
4.333343708E0,3.872078830E-1,-1.397665220E0,2.090692422E-1,1.465301320E0
4.343375708E0,4.440317094E-1,-1.350003396E0,-9.125164747E-3,1.421181409E0
4.353407708E0,4.616236424E-1,-1.353374023E0,-3.074006984E-1,1.462604808E0
4.363439708E0,4.618972921E-1,-1.320684872E0,-5.665253225E-1,1.509472948E0
4.373471708E0,4.754143006E-1,-1.215610699E0,-7.138532299E-1,1.487721265E0
4.383503708E0,4.813720286E-1,-1.101276875E0,-7.805635285E-1,1.433111722E0
4.393535708E0,4.973665023E-1,-1.035036985E0,-7.395227990E-1,1.365858326E0
4.403568708E0,4.421728796E-1,-9.426544860E-1,-6.477083570E-1,1.226230179E0
4.413600708E0,2.898991048E-1,-8.581318143E-1,-6.440003452E-1,1.111381189E0
4.423632708E0,7.318842888E-2,-8.525892386E-1,-7.168285856E-1,1.116292156E0
4.433664708E0,-6.533035576E-2,-8.672294971E-1,-7.396049523E-1,1.141652549E0
4.443696708E0,-1.877500015E-1,-7.601085064E-1,-6.804954493E-1,1.037347127E0
4.453728708E0,-2.304147953E-1,-5.982637167E-1,-6.489637542E-1,9.122304571E-1
4.463760708E0,-2.467829061E-1,-4.479736099E-1,-5.985046220E-1,7.872673881E-1
4.473793708E0,-3.360149252E-1,-2.972850153E-1,-4.100014991E-1,6.077710420E-1
4.483825708E0,-5.906611669E-1,-9.799202532E-2,-1.627654338E-1,6.204640502E-1
4.493857708E0,-9.262153316E-1,5.544037521E-3,-1.934872895E-2,9.264339966E-1
4.503889708E0,-1.289841394E0,6.100078493E-2,5.441155761E-2,1.292428928E0
4.513921708E0,-1.617768450E0,1.599973619E-1,9.670680732E-2,1.628534962E0
4.523953708E0,-1.913070382E0,3.530999047E-1,1.453451166E-1,1.950805740E0
4.533985708E0,-2.129073545E0,5.901252696E-1,1.189510775E-1,2.212544091E0
4.544017708E0,-2.141985367E0,7.998122701E-1,1.163128138E-2,2.286468077E0
4.554050708E0,-1.926011440E0,9.601315212E-1,-3.260828447E-1,2.176626433E0
4.564082708E0,-1.771038006E0,1.164732614E0,-6.672570607E-1,2.222253285E0
4.574114708E0,-1.789436855E0,1.360282216E0,-8.946386129E-1,2.419262328E0
4.584146708E0,-1.969542207E0,1.417665621E0,-1.017183681E0,2.631261097E0
4.594178708E0,-2.233562704E0,1.340429457E0,-1.000442226E0,2.790418988E0
4.604210708E0,-2.301230192E0,1.151316470E0,-9.697618854E-1,2.749841473E0
4.614242708E0,-2.086269003E0,9.525696096E-1,-9.318157947E-1,2.475517701E0
4.624275708E0,-1.614387590E0,8.128995082E-1,-8.060363388E-1,1.979077432E0
4.634307708E0,-9.657091802E-1,6.911698338E-1,-4.868698731E-1,1.283492202E0
4.644339708E0,-2.228824121E-1,5.165857154E-1,-8.554359555E-2,5.690826633E-1
4.654371708E0,5.338455266E-1,3.649896330E-1,3.027240953E-1,7.140380636E-1
4.664403708E0,1.172140451E0,1.619018000E-1,6.063957319E-1,1.329601900E0
4.674435708E0,1.576611069E0,-7.590475291E-2,8.767861864E-1,1.805607380E0
4.684467708E0,1.712904403E0,-2.475523996E-1,1.223725172E0,2.119628973E0
4.694500708E0,1.616800151E0,-3.068712330E-1,1.683869615E0,2.354491360E0
4.704532708E0,1.316738001E0,-2.045885208E-1,2.162592709E0,2.540169808E0
4.714564708E0,9.181631309E-1,-1.201941955E-1,2.571237069E0,2.732897775E0
4.724596708E0,5.205150443E-1,-7.041626394E-2,2.808676125E0,2.857368708E0
4.734628708E0,1.752457309E-1,1.147627169E-1,2.859166540E0,2.866830105E0
4.744660708E0,3.699650288E-2,2.669765577E-1,2.720719383E0,2.734037159E0
4.754692708E0,5.352307320E-2,2.922821376E-1,2.397879989E0,2.416220605E0
4.764725708E0,1.806175679E-1,2.563179606E-1,1.925578308E0,1.950941676E0
4.774757708E0,4.319209564E-1,2.774091598E-1,1.433425037E0,1.522569831E0
4.784789708E0,7.076686299E-1,3.282498229E-1,9.229783130E-1,1.208483265E0
4.794821708E0,8.373850161E-1,2.797585711E-1,3.301867130E-1,9.426037284E-1
4.804853708E0,9.069072407E-1,1.472784984E-1,-2.236022043E-1,9.456054384E-1
4.814885708E0,9.153646535E-1,9.981781840E-3,-5.188480031E-1,1.052233498E0
4.824917708E0,8.296397942E-1,-1.040909636E-1,-4.991801624E-1,9.738161795E-1
4.834950708E0,6.497350019E-1,-1.985506859E-1,-2.667100708E-1,7.298713650E-1
4.844982708E0,3.589401037E-1,-3.566164201E-1,-9.150453955E-3,5.060602730E-1
4.855014708E0,9.324028552E-2,-5.452870658E-1,2.032098936E-1,5.893436992E-1
4.865046708E0,-5.133387566E-2,-6.581161085E-1,4.509361017E-1,7.994343918E-1
4.875078708E0,-9.819755495E-2,-6.954444408E-1,8.098557401E-1,1.071985098E0
4.885110708E0,-7.882046700E-4,-7.728992906E-1,1.207037511E0,1.433287650E0
4.895142708E0,1.247813362E-1,-8.607402572E-1,1.485181374E0,1.721106587E0
4.905175708E0,1.658773220E-1,-9.579698056E-1,1.597681803E0,1.870242919E0
4.915207708E0,2.015576166E-1,-1.017538315E0,1.627372502E0,1.929857755E0
4.925239708E0,2.867907250E-1,-9.691917819E-1,1.594202417E0,1.887607739E0
4.935271708E0,3.790603727E-1,-8.554035035E-1,1.517573779E0,1.782815777E0
4.945303708E0,4.363940763E-1,-7.587463975E-1,1.291050306E0,1.559790620E0
4.955335708E0,5.098526466E-1,-7.246565455E-1,8.739947256E-1,1.244565631E0
4.965367708E0,6.742512077E-1,-6.708621615E-1,4.693902066E-1,1.060659180E0
4.975400708E0,8.557493663E-1,-5.238932732E-1,7.594392926E-2,1.006249780E0
4.985432708E0,9.844114995E-1,-3.910989127E-1,-2.713859430E-1,1.093469108E0
4.995464708E0,9.457491249E-1,-2.759198740E-1,-4.419536090E-1,1.079766723E0
5.005496708E0,7.644848549E-1,-1.172369662E-1,-3.296277192E-1,8.407354120E-1
5.015528708E0,4.909655553E-1,1.412660989E-1,-6.078122199E-2,5.144877493E-1
5.025560708E0,1.340316314E-1,3.935556203E-1,2.055927801E-1,4.638091156E-1
5.035592708E0,-1.598617065E-1,5.249089345E-1,4.797558582E-1,7.288695619E-1
5.045624708E0,-4.124432963E-1,6.509822130E-1,6.423853442E-1,1.003267783E0
5.055657708E0,-5.576355082E-1,8.150705793E-1,6.985542825E-1,1.209659247E0
5.065689708E0,-5.525554472E-1,9.771694306E-1,6.802288163E-1,1.312588611E0
5.075721708E0,-4.042045695E-1,1.144170003E0,5.501911256E-1,1.332372547E0
5.085753708E0,-1.942257929E-1,1.236687572E0,2.646733394E-1,1.279520139E0
5.095785708E0,9.808119535E-3,1.271924356E0,-7.531740010E-2,1.274190126E0
5.105817708E0,1.382427961E-1,1.319395561E0,-3.589766487E-1,1.374328909E0
5.115849708E0,2.103746331E-1,1.408396615E0,-5.208924821E-1,1.516300593E0
5.125882708E0,1.488537383E-1,1.496185249E0,-6.489581993E-1,1.637642964E0
5.135914708E0,-4.681397796E-2,1.573583381E0,-6.919942912E-1,1.719654705E0
5.145946708E0,-3.084739548E-1,1.666265549E0,-6.124166098E-1,1.801846599E0
5.155978708E0,-5.048638022E-1,1.806734965E0,-5.105940735E-1,1.944192635E0
5.166010708E0,-6.633970213E-1,1.866828847E0,-6.072178504E-1,2.072162896E0
5.176042750E0,-8.381200111E-1,1.766586521E0,-7.929795063E-1,2.109997532E0
5.186074750E0,-1.006399954E0,1.633990088E0,-8.797524789E-1,2.111096611E0
5.196107750E0,-1.215032701E0,1.465818904E0,-8.839577964E-1,2.099121461E0
5.206139750E0,-1.452658868E0,1.203643495E0,-8.247825122E-1,2.058941874E0
5.216171750E0,-1.697160775E0,1.061984171E0,-6.531816432E-1,2.105899175E0
5.226203750E0,-1.672342853E0,1.163715198E0,-4.022922376E-1,2.076728852E0
5.236235750E0,-9.976285458E-1,1.239619074E0,-1.945090905E-1,1.603044588E0
5.246267750E0,1.575824618E-3,1.219861332E0,-2.276815143E-1,1.240928292E0
5.256299750E0,8.572298813E-1,1.130086984E0,-4.567891645E-1,1.490166434E0
5.266332750E0,1.502750795E0,9.333141437E-1,-7.930470416E-1,1.938622927E0
5.276364750E0,1.942026379E0,7.095107952E-1,-1.186385730E0,2.383774974E0
5.286396750E0,2.361914935E0,2.809689447E-1,-1.516512217E0,2.820885502E0
5.296428750E0,2.509636068E0,-1.850082421E-1,-1.606191548E0,2.985356349E0
5.306460750E0,2.254222087E0,-5.051582095E-1,-1.405735839E0,2.704218054E0
5.316492750E0,1.801400843E0,-6.618647584E-1,-9.663672844E-1,2.148714891E0
5.326524750E0,1.281549457E0,-7.282271478E-1,-4.878264776E-1,1.552629532E0
5.336556750E0,7.454738027E-1,-7.659718019E-1,-3.749117732E-2,1.069509037E0
5.346589750E0,3.515164787E-1,-7.592714775E-1,1.535815045E-1,8.506728453E-1
5.356621750E0,2.472553611E-1,-7.722236449E-1,1.017950544E-1,8.172067085E-1
5.366653750E0,3.704789990E-1,-7.947459501E-1,-7.421227634E-2,8.799904976E-1
5.376685750E0,6.258959037E-1,-7.867545605E-1,-2.985488909E-1,1.048742037E0
5.386717750E0,8.231885612E-1,-7.603230992E-1,-5.109399363E-1,1.231580383E0
5.396749750E0,8.803673136E-1,-7.601567459E-1,-5.790749091E-1,1.299312370E0
5.406781750E0,8.701188987E-1,-7.895615163E-1,-4.135767791E-1,1.245616329E0
5.416814750E0,7.595422035E-1,-8.241524747E-1,-1.099346709E-1,1.126151541E0
5.426846750E0,5.952535701E-1,-8.415113962E-1,2.289383733E-1,1.055879265E0
5.436878750E0,3.719419724E-1,-8.496355176E-1,4.021706155E-1,1.010921633E0
5.446910750E0,1.679858279E-1,-8.848430648E-1,4.677506474E-1,1.014868049E0
5.456942750E0,7.591849387E-2,-9.330086267E-1,4.833095035E-1,1.053497409E0
5.466974750E0,1.025958306E-1,-9.439130992E-1,3.797453740E-1,1.022596887E0
5.477006750E0,2.438715774E-1,-9.536346799E-1,1.490022576E-1,9.955371021E-1
5.487039750E0,5.237567407E-1,-1.031819847E0,-1.312191206E-1,1.164556472E0
5.497071750E0,7.699332905E-1,-1.078874730E0,-3.433976197E-1,1.369193149E0
5.507103750E0,9.321216041E-1,-1.084507061E0,-4.280185246E-1,1.492717692E0
5.517135750E0,9.715715986E-1,-1.076365398E0,-4.144564927E-1,1.508074277E0
5.527167750E0,8.784447491E-1,-1.093698591E0,-3.563565114E-1,1.447353360E0
5.537199750E0,7.145817930E-1,-1.026892106E0,-2.645619500E-1,1.278721065E0
5.547231750E0,5.740047884E-1,-9.339099750E-1,-2.553397214E-1,1.125552181E0
5.557263750E0,4.269186634E-1,-9.237010288E-1,-2.935676479E-1,1.059086918E0
5.567296750E0,3.440612787E-1,-1.001212597E0,-4.386537328E-1,1.145958954E0
5.577328750E0,4.303463012E-1,-1.029037742E0,-5.549098286E-1,1.245809588E0
5.587360750E0,5.643691617E-1,-9.449419168E-1,-6.079548919E-1,1.257392909E0
5.597392750E0,6.811696333E-1,-8.647055465E-1,-6.234798342E-1,1.265082944E0
5.607424750E0,7.397207272E-1,-7.736366245E-1,-6.555614600E-1,1.255173776E0
5.617456750E0,8.112438691E-1,-6.905982685E-1,-6.053175053E-1,1.225337450E0
5.627488750E0,8.163245147E-1,-5.918730024E-1,-4.646182939E-1,1.110211477E0
5.637521750E0,7.359258842E-1,-4.850990438E-1,-3.031383705E-1,9.320948777E-1
5.647553750E0,5.599790722E-1,-3.454461917E-1,-2.040549624E-1,6.888744881E-1
5.657585750E0,3.066320819E-1,-2.146030471E-1,-1.906101671E-1,4.200118299E-1
5.667617750E0,3.629015923E-2,-5.307459176E-2,-2.182259819E-1,2.275004772E-1
5.677649750E0,-1.322985166E-1,1.691576099E-1,-2.019110808E-1,2.947630897E-1
5.687681750E0,-1.786435479E-1,3.402722830E-1,-1.433421528E-1,4.101776646E-1
5.697713750E0,-2.501947564E-1,4.136893380E-1,-8.650604725E-2,4.911411006E-1
5.707746750E0,-4.359292227E-1,3.808545908E-1,-5.728429466E-2,5.816923560E-1
5.717778750E0,-6.861812818E-1,3.120837334E-1,-9.078533202E-2,7.592647658E-1
5.727810750E0,-1.069526494E0,1.927104869E-1,-1.601157680E-1,1.098481367E0
5.737842750E0,-1.466956480E0,1.294161317E-1,-1.040968108E-1,1.476328552E0
5.747874750E0,-1.816007772E0,1.405843136E-1,5.674064979E-2,1.822324801E0
5.757906750E0,-2.020955604E0,2.252806476E-1,1.340363091E-1,2.037885830E0
5.767938750E0,-2.010386177E0,2.744849673E-1,3.851794839E-2,2.029403413E0
5.777970750E0,-1.848517122E0,2.940424418E-1,-3.107526147E-1,1.897378111E0
5.788003750E0,-1.789576603E0,3.622072354E-1,-6.666656148E-1,1.943764786E0
5.798035750E0,-1.893761707E0,4.817278317E-1,-8.097507825E-1,2.115204821E0
5.808067750E0,-1.973441715E0,6.117737085E-1,-7.483276825E-1,2.197437961E0
5.818099750E0,-2.001548111E0,7.152556846E-1,-4.756955516E-1,2.178089023E0
5.828131750E0,-1.968642905E0,7.777980879E-1,-7.260706946E-2,2.117969910E0
5.838163750E0,-1.745012634E0,8.558940849E-1,3.157778580E-1,1.969096095E0
5.848195750E0,-1.474109378E0,9.064789322E-1,4.611687291E-1,1.790915719E0
5.858228750E0,-1.159336803E0,7.780071259E-1,2.063573036E-1,1.411361133E0
5.868260750E0,-8.915430969E-1,5.635005578E-1,-3.202647190E-1,1.102248367E0
5.878292750E0,-6.226653171E-1,4.291549310E-1,-6.934258358E-1,1.026024094E0
5.888324750E0,-3.591026562E-1,3.600829419E-1,-6.955388734E-1,8.616198507E-1
5.898356750E0,-2.211264932E-1,2.691321337E-1,-3.556180081E-1,4.977883075E-1
5.908388750E0,-1.755796069E-1,1.636065558E-1,1.676385033E-1,2.927421583E-1
5.918420750E0,-1.855666512E-1,8.899754584E-2,7.387430727E-1,7.668747438E-1
5.928452750E0,-2.082497549E-1,1.177246240E-1,1.269472764E0,1.291815833E0
5.938485750E0,-1.277207315E-1,2.054606330E-1,1.642861776E0,1.660578656E0
5.948517750E0,1.187774152E-1,2.707523972E-1,1.814308279E0,1.838240862E0
5.958549750E0,4.977091491E-1,3.180709898E-1,1.763889785E0,1.860158790E0
5.968581750E0,9.604671514E-1,3.429175633E-1,1.558527385E0,1.862551265E0
5.978613750E0,1.381370199E0,3.074746656E-1,1.303216900E0,1.923823949E0
5.988645750E0,1.650083672E0,2.260463405E-1,1.036041244E0,1.961441953E0
5.998677750E0,1.754088682E0,1.456240287E-1,7.686164975E-1,1.920626143E0
6.008710750E0,1.707193428E0,4.650349081E-2,6.903971243E-1,1.842096676E0
6.018742750E0,1.487370279E0,-6.697693169E-3,7.171832192E-1,1.651262237E0
6.028774750E0,1.193461738E0,-8.118975878E-2,7.729551315E-1,1.424219903E0
6.038806750E0,8.918366271E-1,-2.319976366E-1,8.782121761E-1,1.272969795E0
6.048838750E0,6.615171415E-1,-3.325413868E-1,9.981034859E-1,1.242738617E0
6.058870750E0,4.791553491E-1,-4.616791910E-1,1.102017717E0,1.287315258E0
6.068902750E0,3.331386799E-1,-5.897612804E-1,1.109782966E0,1.300160751E0
6.078934750E0,2.555584073E-1,-6.608941206E-1,1.016612116E0,1.239189789E0
6.088967750E0,2.884215134E-1,-7.029440796E-1,8.398037168E-1,1.132513855E0
6.098999750E0,4.115241140E-1,-7.207927054E-1,6.988663776E-1,1.085038448E0
6.109031750E0,5.366650540E-1,-7.706258932E-1,6.641409333E-1,1.150198603E0
6.119063750E0,6.539438277E-1,-8.851851270E-1,6.768292451E-1,1.292011248E0
6.129095750E0,7.245793623E-1,-9.876669368E-1,6.997631943E-1,1.410733766E0
6.139127750E0,6.886640096E-1,-9.622707251E-1,6.742156859E-1,1.361906699E0
6.149159750E0,5.492330593E-1,-8.684720305E-1,5.196803543E-1,1.151506966E0
6.159192750E0,4.956842583E-1,-7.742988217E-1,4.426748630E-1,1.020393347E0
6.169224750E0,4.589742690E-1,-6.181506819E-1,4.367750224E-1,8.851779851E-1
6.179257125E0,4.030164152E-1,-5.569282874E-1,4.855314454E-1,8.416246983E-1
6.189289125E0,3.355816466E-1,-4.503671676E-1,5.659543419E-1,7.973392906E-1
6.199321125E0,1.932522315E-1,-2.572365582E-1,6.154733880E-1,6.944959058E-1
6.209353125E0,3.269061327E-2,-8.594705343E-2,6.042517041E-1,6.112083884E-1
6.219385125E0,-1.179108578E-1,6.960057735E-2,5.892470178E-1,6.049456659E-1
6.229418125E0,-2.424653220E-1,2.874248555E-1,6.289161368E-1,7.327605250E-1
6.239450125E0,-1.577052534E-1,4.834770262E-1,5.658843215E-1,7.608193262E-1
6.249482125E0,7.206693292E-3,6.502308458E-1,5.174014020E-1,8.309971721E-1
6.259514125E0,8.620257676E-2,8.145232800E-1,5.518217678E-1,9.876164849E-1
6.269546125E0,1.289679426E-1,7.750592521E-1,4.082305236E-1,8.854387245E-1
6.279578125E0,7.437599838E-2,6.286063805E-1,2.162885070E-2,6.333605434E-1
6.289610125E0,-7.241776586E-3,5.841289499E-1,-3.608726084E-1,6.866499203E-1
6.299642125E0,-9.016815841E-2,6.642875522E-1,-6.133552341E-1,9.086324296E-1
6.309675125E0,-1.727951628E-1,7.993558949E-1,-8.342678654E-1,1.168259768E0
6.319707125E0,-3.266143566E-1,9.843498114E-1,-9.278259471E-1,1.391575538E0
6.329739125E0,-5.421585131E-1,1.189794949E0,-8.168137805E-1,1.541665537E0
6.339771125E0,-7.262007952E-1,1.275616580E0,-6.121482226E-1,1.590374390E0
6.349803125E0,-9.955100995E-1,1.310326822E0,-4.124367182E-1,1.696496621E0
6.359835125E0,-1.224460167E0,1.331808030E0,-3.213850455E-1,1.837472089E0
6.369867125E0,-1.337966902E0,1.332899413E0,-3.051648693E-1,1.913087001E0
6.379899125E0,-1.358029284E0,1.250320940E0,-4.155706796E-1,1.892153530E0
6.389932125E0,-1.267751198E0,9.458496970E-1,-6.669614840E-1,1.716584507E0
6.399964125E0,-1.251450330E0,6.478519061E-1,-7.817072439E-1,1.611491929E0
6.409996125E0,-1.315067452E0,6.148230314E-1,-6.685124579E-1,1.598223598E0
6.420028125E0,-1.268059931E0,7.107132751E-1,-3.317338863E-1,1.491018685E0
6.430060125E0,-1.009852735E0,8.334875545E-1,-7.773785502E-2,1.311696315E0
6.440092125E0,-4.686870790E-1,9.031343248E-1,-1.362298921E-1,1.026585491E0
6.450124125E0,2.223941696E-1,8.688538536E-1,-3.844177379E-1,9.757782447E-1
6.460157125E0,8.035407472E-1,7.505670199E-1,-7.107590295E-1,1.309277275E0
6.470189125E0,1.150870035E0,4.624422526E-1,-9.271897700E-1,1.548559183E0
6.480221125E0,1.268546419E0,1.569293278E-1,-9.344037724E-1,1.583334217E0
6.490253125E0,1.232238134E0,-1.147279260E-1,-7.458684897E-1,1.444954366E0
6.500285125E0,1.211415029E0,-3.082722259E-1,-5.024056327E-1,1.347208060E0
6.510317125E0,1.169091128E0,-3.989280421E-1,-3.688597588E-1,1.289176160E0
6.520349125E0,1.089290668E0,-3.968207055E-1,-3.973883240E-1,1.225535928E0
6.530381125E0,1.045845855E0,-3.741840872E-1,-6.018444054E-1,1.263338424E0
6.540414125E0,1.058748906E0,-4.306181967E-1,-8.865431428E-1,1.446492317E0
6.550446125E0,1.138035981E0,-5.062212333E-1,-1.127813294E0,1.680282315E0
6.560478125E0,1.157470956E0,-5.685706785E-1,-1.260449487E0,1.803259422E0
6.570510125E0,1.023003123E0,-5.957716334E-1,-1.201814778E0,1.686961170E0
6.580542125E0,8.908297366E-1,-5.865304014E-1,-9.360478632E-1,1.419077564E0
6.590574125E0,8.054662353E-1,-4.995849359E-1,-5.873247457E-1,1.115038708E0
6.600606125E0,6.657762533E-1,-4.889324784E-1,-3.537045068E-1,8.985654490E-1
6.610639125E0,4.694489712E-1,-5.525203639E-1,-3.725763953E-1,8.151529055E-1
6.620671125E0,3.635541415E-1,-6.735989508E-1,-4.584202453E-1,8.922198617E-1
6.630703125E0,3.388923401E-1,-7.573769796E-1,-4.675807858E-1,9.524178172E-1
6.640735125E0,3.482689351E-1,-7.819194978E-1,-4.079236910E-1,9.482041394E-1
6.650767125E0,3.765454853E-1,-8.111070442E-1,-3.630349088E-1,9.651297761E-1
6.660799125E0,3.632740599E-1,-8.645573196E-1,-3.052594480E-1,9.862102879E-1
6.670831125E0,3.808075207E-1,-9.251251182E-1,-2.263375318E-1,1.025719031E0
6.680863125E0,4.316186553E-1,-9.061085111E-1,-1.467592657E-1,1.014330114E0
6.690896125E0,4.960403538E-1,-8.741233644E-1,-1.706898728E-1,1.019452167E0
6.700928125E0,6.204451293E-1,-8.468820637E-1,-2.940465349E-1,1.090240686E0
6.710960125E0,8.224178982E-1,-8.473556882E-1,-3.958377886E-1,1.245419775E0
6.720992125E0,1.109941864E0,-9.240574166E-1,-4.499678028E-1,1.512720752E0
6.731024125E0,1.349212852E0,-1.107119705E0,-4.444430611E-1,1.801004996E0
6.741056125E0,1.302504709E0,-1.289114585E0,-3.803742421E-1,1.871635513E0
6.751088125E0,9.626382226E-1,-1.350460063E0,-3.440718037E-1,1.693753269E0
6.761121125E0,5.222662854E-1,-1.343641333E0,-3.696288139E-1,1.488206828E0
6.771153125E0,1.907466996E-1,-1.388155308E0,-4.307254931E-1,1.465907198E0
6.781185125E0,1.487940967E-2,-1.476439786E0,-3.928872836E-1,1.527892750E0
6.791217125E0,-7.353633821E-2,-1.534445335E0,-1.621491373E-1,1.544740244E0
6.801249125E0,-2.261293709E-2,-1.453094193E0,1.764675066E-1,1.463944965E0
6.811281125E0,1.340901035E-1,-1.307426018E0,3.164349389E-1,1.351840974E0
6.821313125E0,3.221769047E-1,-1.173349363E0,2.230725928E-1,1.237056210E0
6.831345125E0,5.116132432E-1,-1.031063802E0,-8.015070856E-3,1.151045141E0
6.841378125E0,7.349575853E-1,-8.239583471E-1,-2.106637779E-1,1.124032578E0
6.851410125E0,8.612457490E-1,-5.027895024E-1,-4.106362143E-1,1.078500637E0
6.861442125E0,8.275850827E-1,-2.565424937E-1,-5.559798691E-1,1.029477894E0
6.871474125E0,6.644968826E-1,-1.361217186E-1,-5.869047694E-1,8.969628964E-1
6.881506125E0,2.426132566E-1,1.411547095E-2,-4.479461280E-1,5.096235594E-1
6.891538125E0,-3.012117130E-1,9.949505210E-2,-2.755430210E-1,4.201805776E-1
6.901570125E0,-7.543434441E-1,1.667678529E-1,-1.848471513E-1,7.943639077E-1
6.911603125E0,-1.196858971E0,3.077287272E-1,-1.445295762E-1,1.244209453E0
6.921635125E0,-1.744509189E0,4.816681901E-1,-2.061937277E-1,1.821491808E0
6.931667125E0,-2.245972835E0,6.492619622E-1,-4.798026359E-1,2.386659934E0
6.941699125E0,-2.406522174E0,6.961265185E-1,-9.676381767E-1,2.685566001E0
6.951731125E0,-2.441439407E0,7.167028704E-1,-1.412711714E0,2.910333962E0
6.961763125E0,-2.598011470E0,8.481804380E-1,-1.618609572E0,3.176313996E0
6.971795125E0,-2.745157821E0,1.001091267E0,-1.595689949E0,3.329309478E0
6.981828125E0,-2.758908134E0,1.048853956E0,-1.412829828E0,3.272270898E0
6.991860125E0,-2.531278367E0,8.752395979E-1,-1.248829608E0,2.955163264E0
7.001892125E0,-1.995990917E0,5.213397941E-1,-1.133823939E0,2.354003324E0
7.011924125E0,-1.329199002E0,3.052462918E-1,-9.381030133E-1,1.655289265E0
7.021956125E0,-7.061881149E-1,3.189433944E-1,-5.948031883E-1,9.768405066E-1
7.031988125E0,-2.112733501E-1,3.504309431E-1,-1.791200960E-1,4.466791725E-1
7.042020125E0,1.920009273E-1,3.232992777E-1,1.481066103E-1,4.041315963E-1
7.052052125E0,4.270133883E-1,2.480067283E-1,4.515502055E-1,6.691377729E-1
7.062085125E0,5.125716019E-1,2.167451745E-1,8.158045511E-1,9.875450285E-1
7.072117125E0,4.942002350E-1,3.652568507E-1,1.273627503E0,1.414133465E0
7.082149125E0,3.902922893E-1,5.555878133E-1,1.711456486E0,1.841219486E0
7.092181125E0,3.264389402E-1,6.684235802E-1,1.878731585E0,2.020639709E0
7.102213125E0,3.084973437E-1,7.948003292E-1,1.903792752E0,2.085978191E0
7.112245125E0,4.915075922E-1,8.405767187E-1,1.746269639E0,1.999401557E0
7.122277125E0,6.958262640E-1,8.816270962E-1,1.397953634E0,1.793241447E0
7.132309125E0,9.223906678E-1,9.293509009E-1,1.057711172E0,1.683226237E0
7.142342125E0,1.142530736E0,9.400466278E-1,7.885202734E-1,1.676552524E0
7.152374125E0,1.285922590E0,9.081415880E-1,4.856638849E-1,1.647479123E0
7.162406125E0,1.265134569E0,8.899225411E-1,1.441606168E-1,1.553483148E0
7.172437708E0,1.101880308E0,8.828588122E-1,-1.655240040E-1,1.421611090E0
7.182469708E0,9.299517024E-1,8.850968340E-1,-3.934052007E-1,1.342748758E0
7.192501708E0,7.701613319E-1,7.700987667E-1,-5.463683622E-1,1.218490449E0
7.202533708E0,6.463851321E-1,5.434440234E-1,-6.397600906E-1,1.059451801E0
7.212566708E0,5.493880105E-1,3.167164823E-1,-6.911957078E-1,9.380234660E-1
7.222598708E0,5.284146327E-1,1.101580346E-1,-7.057203376E-1,8.884807322E-1
7.232630708E0,6.328862500E-1,-6.843288839E-2,-6.105063245E-1,8.820124930E-1
7.242662708E0,7.970626169E-1,-2.287465847E-1,-4.250631957E-1,9.318328904E-1
7.252694708E0,1.039437307E0,-4.018063340E-1,-2.576891327E-1,1.143801528E0
7.262726708E0,1.251494184E0,-5.651313463E-1,-9.362897918E-2,1.376363875E0
7.272758708E0,1.401177058E0,-6.770031998E-1,1.029323378E-1,1.559559407E0
7.282790708E0,1.521306349E0,-7.119987854E-1,2.651867250E-1,1.700482072E0
7.292823708E0,1.561530515E0,-7.573810726E-1,3.857912488E-1,1.777874722E0
7.302855708E0,1.518435951E0,-8.128527305E-1,4.378759070E-1,1.777107934E0
7.312887708E0,1.409159092E0,-8.052209446E-1,5.153702255E-1,1.702855421E0
7.322919708E0,1.249051802E0,-7.390178919E-1,5.998870499E-1,1.570395594E0
7.332951708E0,1.030101643E0,-6.578485984E-1,6.386817178E-1,1.379053483E0
7.342983708E0,7.908803558E-1,-5.795283607E-1,6.648379214E-1,1.184632567E0
7.353015708E0,6.077537477E-1,-5.490339616E-1,6.671360233E-1,1.056349082E0
7.363048708E0,4.289821458E-1,-5.026675880E-1,7.520861265E-1,1.001166283E0
7.373080708E0,2.166428483E-1,-3.833133450E-1,8.458735652E-1,9.536064872E-1
7.383112708E0,4.014990628E-2,-2.816957536E-1,8.695036255E-1,9.148776242E-1
7.393144708E0,-1.400969481E-1,-2.165223956E-1,8.160479414E-1,8.558290398E-1
7.403176708E0,-2.855189556E-1,-1.525407001E-1,7.369620109E-1,8.049240614E-1
7.413208708E0,-3.965675211E-1,-2.778304517E-2,7.503647062E-1,8.491671736E-1
7.423240708E0,-5.496751088E-1,9.657407552E-2,7.230915383E-1,9.134170187E-1
7.433273708E0,-7.412708241E-1,-2.424986511E-2,5.087139013E-1,8.993666238E-1
7.443305708E0,-8.160333234E-1,-2.289828122E-1,2.194452725E-1,8.754997092E-1
7.453337708E0,-7.350277519E-1,-2.436695561E-1,-4.386668891E-2,7.756061727E-1
7.463369708E0,-5.901986521E-1,-4.254024804E-2,-2.316032419E-1,6.354401493E-1
7.473401708E0,-5.261769032E-1,1.702261886E-1,-3.832683215E-1,6.728548841E-1
7.483433708E0,-6.607663590E-1,3.862892854E-1,-4.858344774E-1,9.065686585E-1
7.493465708E0,-8.978972661E-1,5.716366661E-1,-6.289241767E-1,1.236338788E0
7.503497708E0,-1.157244669E0,7.004920498E-1,-7.312519124E-1,1.537736549E0
7.513530708E0,-1.486397302E0,7.784955145E-1,-7.683638978E-1,1.845485108E0
7.523562708E0,-1.772858244E0,7.780866480E-1,-7.218609917E-1,2.066283736E0
7.533594708E0,-1.941025336E0,6.877164683E-1,-6.884733903E-1,2.171296595E0
7.543626708E0,-2.037947613E0,5.075932825E-1,-8.896155623E-1,2.280854503E0
7.553658708E0,-1.900455599E0,2.255895267E-1,-1.495489576E0,2.428808595E0
7.563690708E0,-1.816125886E0,1.087551413E-1,-2.159335810E0,2.823627464E0
7.573722708E0,-1.896581819E0,2.471461643E-1,-2.617207879E0,3.241586171E0
7.583754708E0,-1.727153483E0,4.277058448E-1,-2.730980954E0,3.259485913E0
7.593787708E0,-1.251273159E0,5.947768758E-1,-2.519496520E0,2.875292466E0
7.603819708E0,-6.178249919E-1,6.783220392E-1,-2.224700664E0,2.406474923E0
7.613851708E0,6.209918439E-2,6.463003474E-1,-2.178168522E0,2.272878914E0
7.623883708E0,6.652494192E-1,5.707847267E-1,-2.355438559E0,2.513253429E0
7.633915708E0,1.028473193E0,4.399485987E-1,-2.436334641E0,2.680865227E0
7.643947708E0,1.210639104E0,2.298929313E-1,-2.274249970E0,2.586640818E0
7.653979708E0,1.254378031E0,1.776618004E-2,-1.863135746E0,2.246119918E0
7.664012708E0,1.239295138E0,-8.170957625E-2,-1.339657625E0,1.826803614E0
7.674044708E0,1.250058693E0,-3.695118695E-2,-8.158548371E-1,1.493194977E0
7.684076708E0,1.253585148E0,7.163687021E-2,-3.591430020E-1,1.305982872E0
7.694108708E0,1.394248107E0,1.757819206E-1,2.292693257E-2,1.405472416E0
7.704140708E0,1.583732978E0,2.909358162E-1,2.776680453E-1,1.633999185E0
7.714172708E0,1.923862004E0,3.308784387E-1,3.942803827E-1,1.991527698E0
7.724204708E0,2.311937029E0,3.779128566E-1,4.440866733E-1,2.384341403E0
7.734236708E0,2.528087541E0,4.839342785E-1,4.747433326E-1,2.617403338E0
7.744269708E0,2.540104154E0,5.357414863E-1,5.292548776E-1,2.649388379E0
7.754301708E0,2.346190603E0,5.462445474E-1,7.358709204E-1,2.518828986E0
7.764333708E0,2.044743247E0,5.209980243E-1,1.050226589E0,2.356987437E0
7.774365708E0,1.720379484E0,5.269949287E-1,1.342991999E0,2.245229773E0
7.784397708E0,1.446725698E0,5.078815502E-1,1.497476753E0,2.143220833E0
7.794429708E0,1.198466955E0,4.995048290E-1,1.562126054E0,2.031271997E0
7.804461708E0,9.837694752E-1,3.595297953E-1,1.503477165E0,1.832350305E0
7.814494708E0,8.729314095E-1,2.108584902E-1,1.310786997E0,1.588909406E0
7.824526708E0,7.247489315E-1,4.867251545E-2,9.653052838E-1,1.208074633E0
7.834558708E0,7.495779634E-1,-1.610390434E-1,6.509140930E-1,1.005728519E0
7.844590708E0,8.648622519E-1,-3.108517250E-1,4.271370569E-1,1.013440464E0
7.854622708E0,9.925952625E-1,-4.198327151E-1,1.746224177E-1,1.091786542E0
7.864654708E0,1.099858341E0,-5.446596596E-1,-9.855014205E-2,1.231281708E0
7.874686708E0,1.086330807E0,-6.146870837E-1,-3.067308998E-1,1.285316567E0
7.884718708E0,9.363508952E-1,-6.361098200E-1,-4.321264860E-1,1.211660844E0
7.894751708E0,6.928272271E-1,-7.700110584E-1,-5.556666045E-1,1.175453943E0
7.904783708E0,2.730029905E-1,-9.672243400E-1,-7.742074589E-1,1.268641299E0
7.914815708E0,-2.385389167E-1,-1.166310339E0,-9.937401474E-1,1.550709548E0
7.924847708E0,-6.756305659E-1,-1.305297924E0,-1.096077239E0,1.833484291E0
7.934879708E0,-8.815332484E-1,-1.429629609E0,-1.051110104E0,1.981356641E0
7.944911708E0,-8.487812394E-1,-1.511290507E0,-8.856768778E-1,1.946497398E0
7.954943708E0,-6.290107155E-1,-1.541271667E0,-6.542120688E-1,1.788621330E0
7.964976708E0,-3.919207388E-1,-1.504926398E0,-4.869377008E-1,1.629574684E0
7.975008708E0,-1.910829145E-1,-1.387068165E0,-3.705746010E-1,1.448377129E0
7.985040708E0,-2.803213656E-2,-1.319815683E0,-2.893513669E-1,1.351452349E0
7.995072708E0,1.020146173E-1,-1.282724309E0,-2.479429936E-1,1.310444338E0
8.005104708E0,1.452746576E-1,-1.144230083E0,-9.326849833E-2,1.157180289E0
8.015136708E0,1.337164664E-1,-8.422203711E-1,1.212034249E-1,8.613393739E-1
8.025168708E0,1.028016526E-1,-5.232088566E-1,3.187919515E-1,6.212439100E-1
8.035200708E0,3.407464921E-2,-3.452582037E-1,2.997387993E-1,4.584840857E-1
8.045233708E0,-2.137361974E-1,-2.580231549E-1,6.756823137E-2,3.417961036E-1
8.055265708E0,-5.399640530E-1,-1.654512061E-1,-1.145905164E-1,5.762519125E-1
8.065297708E0,-8.088605440E-1,-7.552614570E-2,-1.912323108E-1,8.345833541E-1
8.075329708E0,-1.003848229E0,-2.526625738E-2,-2.628174332E-1,1.037989718E0
8.085361708E0,-1.162960322E0,4.689481571E-2,-4.222730505E-1,1.238139881E0
8.095393708E0,-1.349232148E0,1.761133115E-1,-5.991101012E-1,1.486733399E0
8.105425708E0,-1.504443564E0,3.007670322E-1,-8.086044359E-1,1.734258452E0
8.115458708E0,-1.664494135E0,2.972471546E-1,-1.147906958E0,2.043669979E0
8.125490708E0,-1.970563130E0,2.442178787E-1,-1.299269883E0,2.372944089E0
8.135522708E0,-2.361533697E0,2.633663405E-1,-1.242059702E0,2.681215309E0
8.145554708E0,-2.677433031E0,3.432872535E-1,-8.636827223E-1,2.834156244E0
8.155586708E0,-2.688489531E0,4.017753437E-1,-2.519553530E-1,2.729996499E0
8.165618708E0,-2.358732880E0,3.895999789E-1,3.453540981E-1,2.415507896E0
8.175651458E0,-1.746147578E0,3.943948419E-1,5.217156239E-1,1.864608766E0
8.185683458E0,-1.150019850E0,2.207736138E-1,8.814341381E-2,1.174332110E0
8.195716458E0,-5.469421202E-1,4.850440800E-2,-5.682023039E-1,7.901596159E-1
8.205748458E0,-1.487496579E-1,3.291982412E-3,-1.079356541E0,1.089563142E0
8.215780458E0,1.064128929E-1,-3.352808073E-2,-1.311623734E0,1.316360382E0
8.225812458E0,8.362687826E-2,-1.474527454E-1,-1.182341942E0,1.194432181E0
8.235844458E0,-1.194130075E-1,-2.782947206E-1,-6.408919653E-1,7.088370258E-1
8.245876458E0,-2.973455340E-1,-3.268505841E-1,8.336287647E-2,4.496610280E-1
8.255908458E0,-3.479479229E-1,-1.459213597E-1,7.648225316E-1,8.528272423E-1
8.265940458E0,-1.503693366E-1,1.200095697E-1,1.273830256E0,1.288276661E0
8.275973458E0,1.097686100E-1,2.819050840E-1,1.541738567E0,1.571138897E0
8.286005458E0,3.786715329E-1,3.653140073E-1,1.492294804E0,1.582336954E0
8.296037458E0,7.844343853E-1,3.919058284E-1,1.270895977E0,1.544054425E0
8.306069458E0,1.152992574E0,3.880551445E-1,1.047988275E0,1.605695518E0
8.316101458E0,1.333373914E0,3.877743320E-1,8.790658696E-1,1.643475504E0
8.326133458E0,1.412563341E0,3.770030299E-1,7.066279717E-1,1.623819438E0
8.336165458E0,1.334822270E0,3.490580168E-1,5.136568451E-1,1.472221228E0
8.346198458E0,1.199266854E0,2.819140010E-1,3.311497495E-1,1.275686736E0
8.356230458E0,1.060174457E0,2.086919506E-1,2.745861241E-1,1.114863108E0
8.366262458E0,8.289673644E-1,2.451515329E-1,3.934429152E-1,9.497807604E-1
8.376294458E0,6.463465405E-1,2.482371086E-1,5.226529326E-1,8.674973201E-1
8.386326458E0,6.139517963E-1,1.784773408E-1,6.056850028E-1,8.807072680E-1
8.396358458E0,7.426414114E-1,1.282851340E-1,7.573898435E-1,1.068462782E0
8.406390458E0,9.241927797E-1,8.717920795E-2,8.226647969E-1,1.240366831E0
8.416422458E0,1.047478398E0,-9.195769876E-2,7.150960556E-1,1.271624780E0
8.426455458E0,1.044595721E0,-3.350333239E-1,5.603395531E-1,1.231831142E0
8.436487458E0,9.956773299E-1,-4.273145199E-1,5.442775440E-1,1.212521789E0
8.446519458E0,1.020535013E0,-4.126846401E-1,7.172511931E-1,1.313868182E0
8.456551458E0,1.096181611E0,-4.560568008E-1,8.522214487E-1,1.461466157E0
8.466583458E0,9.852154917E-1,-4.988954030E-1,9.892686354E-1,1.482632328E0
8.476615458E0,6.854971576E-1,-5.550587864E-1,1.058454791E0,1.377796485E0
8.486647458E0,3.046335036E-1,-6.241113335E-1,1.047375633E0,1.256706905E0
8.496680458E0,1.822167814E-2,-6.423445599E-1,1.039852021E0,1.222387332E0
8.506712458E0,-1.106930548E-1,-6.040926598E-1,1.051434624E0,1.217659913E0
8.516744458E0,-2.089356333E-1,-4.466389829E-1,1.049229932E0,1.159320460E0
8.526776458E0,-2.014675695E-1,-2.813928679E-1,1.042250987E0,1.098206833E0
8.536808458E0,-8.365202129E-2,-1.057350545E-1,1.003646500E0,1.012661770E0
8.546840458E0,1.319038296E-1,1.158353886E-1,9.055384076E-1,9.223970214E-1
8.556872458E0,3.769559598E-1,2.673487329E-1,7.751440367E-1,9.024518925E-1
8.566904458E0,5.390214819E-1,3.928258878E-1,5.975594196E-1,8.955074517E-1
8.576937458E0,4.920478749E-1,5.117339882E-1,4.337695536E-1,8.319488034E-1
8.586969458E0,4.080011666E-1,5.628592645E-1,3.635211048E-1,7.844890676E-1
8.597001458E0,4.413431597E-1,4.808580583E-1,4.373065343E-1,7.856495795E-1
8.607033458E0,5.560368794E-1,3.589724095E-1,5.169426879E-1,8.398023248E-1
8.617065458E0,8.121753305E-1,2.663741483E-1,4.708888480E-1,9.758689777E-1
8.627097458E0,1.117618089E0,3.033326443E-1,1.947029257E-1,1.174304098E0
8.637129458E0,1.166459296E0,3.888354555E-1,-3.440946078E-1,1.276801238E0
8.647161458E0,7.274064910E-1,3.582045239E-1,-1.243216281E0,1.484256516E0
8.657194458E0,-2.196582574E-1,2.902746423E-1,-2.104457206E0,2.135708138E0
8.667226458E0,-1.087244727E0,3.783929130E-1,-2.578542581E0,2.823856252E0
8.677258458E0,-1.750650519E0,4.252722336E-1,-2.772888534E0,3.306742284E0
8.687290458E0,-2.468923075E0,3.552627897E-1,-2.787149308E0,3.740320048E0
8.697322458E0,-3.054510028E0,2.406702268E-1,-2.564264265E0,3.995422992E0
8.707354458E0,-3.672232109E0,1.831646881E-1,-2.160644417E0,4.264647964E0
8.717386458E0,-4.118253041E0,6.771375395E-2,-1.581060654E0,4.411841572E0
8.727419458E0,-4.262294521E0,-6.258764617E-2,-1.053742228E0,4.391064162E0
8.737451458E0,-3.894782984E0,-2.295476532E-1,-6.799971204E-1,3.960356385E0
8.747483458E0,-3.119127608E0,-2.419931594E-1,-4.864598371E-1,3.166095529E0
8.757515458E0,-1.836388242E0,-1.176740456E-1,-5.660490668E-1,1.925248167E0
8.767547458E0,-2.074691516E-1,-7.897161752E-2,-9.056755248E-1,9.324849175E-1
8.777579458E0,1.364902101E0,-2.554863404E-1,-1.260610870E0,1.875465484E0
8.787611458E0,2.668085672E0,-4.921700817E-1,-1.545156265E0,3.122246054E0
8.797644458E0,3.625271366E0,-6.938010809E-1,-1.819051102E0,4.114960428E0
8.807676458E0,4.083038185E0,-8.385972901E-1,-2.075789039E0,4.656538024E0
8.817708458E0,4.047097689E0,-8.529992746E-1,-2.136765558E0,4.655359762E0
8.827740458E0,3.611955501E0,-8.252495585E-1,-1.948024453E0,4.185935815E0
8.837772458E0,2.758750259E0,-8.594239028E-1,-1.494497889E0,3.253127168E0
8.847804458E0,1.772067116E0,-9.110761593E-1,-8.980922708E-1,2.185600915E0
8.857836458E0,1.033621082E0,-9.290097159E-1,-4.331798619E-1,1.455704773E0
8.867868458E0,4.348714614E-1,-9.577132590E-1,-9.051007435E-2,1.055708268E0
8.877900458E0,-1.124103820E-1,-9.513541196E-1,1.772782230E-1,9.742373034E-1
8.887933458E0,-4.560781431E-1,-9.758619931E-1,4.500765610E-1,1.167425721E0
8.897965458E0,-5.613502443E-1,-9.812545878E-1,6.496008083E-1,1.303823559E0
8.907997458E0,-4.882243806E-1,-9.239059737E-1,7.742730939E-1,1.300563000E0
8.918029458E0,-3.399185264E-1,-8.803515261E-1,9.013848379E-1,1.305012659E0
8.928061458E0,-1.017134857E-1,-8.861238974E-1,1.011886981E0,1.348879705E0
8.938093458E0,2.248985320E-1,-9.239011498E-1,1.145937031E0,1.489075003E0
8.948125458E0,5.183960134E-1,-9.567461295E-1,1.172407669E0,1.599574107E0
8.958158458E0,6.868981504E-1,-9.953854077E-1,9.953083706E-1,1.566288585E0
8.968190458E0,7.846022004E-1,-1.021093715E0,6.329362437E-1,1.434866292E0
8.978222458E0,6.844545990E-1,-1.044082335E0,1.255458596E-1,1.254730164E0
8.988254458E0,5.237795448E-1,-1.085187238E0,-4.082479191E-1,1.272258903E0
8.998286458E0,3.815208811E-1,-1.091281791E0,-8.727717805E-1,1.448511205E0
9.008318458E0,3.142089039E-1,-1.021232878E0,-1.443404480E0,1.795845294E0
9.018350458E0,3.504288965E-1,-9.102493630E-1,-2.150840975E0,2.361667041E0
9.028382458E0,4.439492637E-1,-7.455805144E-1,-2.606663010E0,2.747302914E0
9.038415458E0,6.814619941E-1,-6.287318033E-1,-2.427634131E0,2.598673046E0
9.048447458E0,8.791779900E-1,-6.373448981E-1,-1.663933680E0,1.986916643E0
9.058479458E0,8.396665996E-1,-8.074351390E-1,-7.925903741E-1,1.408968063E0
9.068511458E0,6.819502366E-1,-1.054482632E0,-1.442820928E-1,1.264043934E0
9.078543458E0,5.415913332E-1,-1.213146682E0,3.207993007E-1,1.366732686E0
9.088575458E0,4.426184374E-1,-1.332412340E0,6.953330514E-1,1.566755174E0
9.098607458E0,4.395907491E-1,-1.482952415E0,9.459368205E-1,1.813059392E0
9.108640458E0,5.878352076E-1,-1.602820628E0,1.060274152E0,2.009668001E0
9.118672458E0,7.738877624E-1,-1.640535315E0,1.095623495E0,2.119115200E0
9.128704458E0,8.922903711E-1,-1.671632124E0,1.019765227E0,2.151849712E0
9.138736458E0,8.572252035E-1,-1.667911687E0,7.832590950E-1,2.032303928E0
9.148768458E0,6.296580023E-1,-1.617545379E0,5.215839154E-1,1.812449181E0
9.158800458E0,3.401834053E-1,-1.495846987E0,3.042914414E-1,1.563929743E0
9.168832458E0,4.444293201E-2,-1.372633290E0,5.342220873E-2,1.374391231E0
9.178864208E0,-2.735011733E-1,-1.237443179E0,-2.583560076E-1,1.293374014E0
9.188897208E0,-6.940299994E-1,-1.118684913E0,-4.522458780E-1,1.391998531E0
9.198929208E0,-1.127678808E0,-1.032601327E0,-5.356432530E-1,1.620135392E0
9.208961208E0,-1.487925764E0,-1.001385236E0,-5.622939849E-1,1.879593040E0
9.218993208E0,-1.802993624E0,-9.850400752E-1,-5.755358818E-1,2.133619345E0
9.229025208E0,-2.064929005E0,-9.064061344E-1,-5.339537001E-1,2.317457751E0
9.239057208E0,-2.263406308E0,-7.623320563E-1,-4.328796074E-1,2.427250097E0
9.249089208E0,-2.392514584E0,-6.228243613E-1,-5.105084118E-1,2.524411824E0
9.259121208E0,-2.262415205E0,-5.904328331E-1,-6.676242658E-1,2.431636414E0
9.269154208E0,-2.226795137E0,-5.548263596E-1,-9.058529878E-1,2.467188381E0
9.279186208E0,-2.479606522E0,-4.415466428E-1,-9.862285218E-1,2.704821369E0
9.289218208E0,-2.937462804E0,-3.552158658E-1,-9.448796439E-1,3.106068830E0
9.299250208E0,-3.407739741E0,-2.357867785E-1,-9.423863912E-1,3.543497941E0
9.309282208E0,-3.676533905E0,-1.023990718E-1,-1.171316871E0,3.859970251E0
9.319314208E0,-3.285616549E0,-3.301001742E-2,-1.622721627E0,3.664640671E0
9.329346208E0,-2.029798933E0,-5.206945539E-4,-1.902057444E0,2.781709277E0
9.339379208E0,-3.849479342E-1,1.815143846E-1,-1.728810584E0,1.780426471E0
9.349411208E0,9.034275627E-1,2.343189812E-1,-1.315380278E0,1.612858339E0
9.359443208E0,1.562336846E0,1.741169259E-1,-7.731969139E-1,1.751869456E0
9.369475208E0,1.528393759E0,1.266033286E-1,-3.561746630E-1,1.574444752E0
9.379507208E0,1.052506419E0,3.370188922E-2,-7.871989489E-2,1.055984091E0
9.389539208E0,4.400398153E-1,-1.750096495E-1,3.280048245E-1,5.760647372E-1
9.399571208E0,7.606642842E-2,-2.696225689E-1,8.435859883E-1,8.888868043E-1
9.409603208E0,2.038163960E-2,-2.219217145E-1,1.259608073E0,1.279170495E0
9.419636208E0,1.658393151E-1,-1.507068671E-1,1.454227383E0,1.471391355E0
9.429668208E0,5.644077533E-1,-8.042465061E-2,1.615478096E0,1.713123964E0
9.439700208E0,8.772396380E-1,-8.317415759E-2,1.593324458E0,1.820755379E0
9.449732208E0,9.335255206E-1,-1.804159851E-1,1.457277291E0,1.740022106E0
9.459764208E0,7.850506818E-1,-2.639322048E-1,1.347872378E0,1.582000230E0
9.469796208E0,4.476411957E-1,-2.933476464E-1,1.311661156E0,1.416647617E0
9.479828208E0,1.128945315E-1,-2.883001837E-1,1.281262944E0,1.318141458E0
9.489860208E0,5.912236691E-2,-1.914968973E-1,1.224556646E0,1.240848700E0
9.499893208E0,1.115017247E-1,-6.233672753E-2,1.171990470E0,1.178931789E0
9.509925208E0,2.201248652E-1,4.211383983E-2,1.061993526E0,1.085384163E0
9.519957208E0,4.178332597E-1,1.548924503E-1,8.751466271E-1,9.820681866E-1
9.529989208E0,5.952605867E-1,2.401797916E-1,5.712870026E-1,8.592964202E-1
9.540021208E0,7.480155873E-1,3.134613374E-1,3.192193830E-1,8.715998758E-1
9.550053208E0,7.769575506E-1,2.762949729E-1,1.103334510E-1,8.319708036E-1
9.560085208E0,7.845256019E-1,1.381947027E-1,8.227412492E-2,8.008415745E-1
9.570117208E0,7.519782454E-1,-3.352851927E-2,2.289679018E-1,7.867793485E-1
9.580150208E0,6.121847677E-1,-2.416988982E-1,4.491389599E-1,7.968151307E-1
9.590182208E0,4.189360446E-1,-4.598115903E-1,6.276290184E-1,8.836584707E-1
9.600214208E0,1.791335446E-1,-5.168541026E-1,8.472823057E-1,1.008520845E0
9.610246208E0,-1.392631352E-2,-4.371457359E-1,1.162843671E0,1.242375039E0
9.620278208E0,-5.765530050E-2,-3.360103936E-1,1.414417493E0,1.454924040E0
9.630310208E0,8.088979661E-2,-3.501366819E-1,1.455461438E0,1.499168721E0
9.640342208E0,3.211501336E-1,-4.005002122E-1,1.336049600E0,1.431281371E0
9.650374208E0,5.606134951E-1,-3.976814157E-1,1.152709861E0,1.342079738E0
9.660407208E0,7.155980390E-1,-3.207113001E-1,1.012980410E0,1.281040828E0
9.670439208E0,7.380110013E-1,-2.268368840E-1,8.681454635E-1,1.161805386E0
9.680471208E0,6.893949115E-1,-1.229491112E-1,6.398175395E-1,9.485506374E-1
9.690503208E0,7.824837542E-1,1.539446166E-1,4.616797757E-1,9.214814083E-1
9.700535208E0,8.779834038E-1,4.913492788E-1,3.402331066E-1,1.062091116E0
9.710567208E0,8.078466368E-1,8.478167412E-1,3.879849780E-1,1.233670036E0
9.720599208E0,5.744252032E-1,1.030134826E0,3.530847019E-1,1.231182716E0
9.730631208E0,3.062233615E-1,1.056791405E0,3.132169238E-1,1.143977999E0
9.740664208E0,-1.208707184E-1,1.089474855E0,1.326762468E-1,1.104159489E0
9.750696208E0,-4.098500562E-1,9.587366679E-1,-6.329932541E-2,1.044585981E0
9.760728208E0,-5.967457795E-1,7.366626334E-1,-2.691938218E-1,9.855164507E-1
9.770760208E0,-6.696395087E-1,5.582547283E-1,-3.133318216E-1,9.264136461E-1
9.780792208E0,-6.742155397E-1,5.253408976E-1,-2.748559731E-1,8.978281899E-1
9.790824208E0,-7.458930480E-1,5.106250638E-1,-2.500146621E-1,9.378708473E-1
9.800856208E0,-9.196313667E-1,5.256472917E-1,-2.719168702E-1,1.093602172E0
9.810889208E0,-1.159088881E0,6.262952685E-1,-3.179289025E-1,1.355290222E0
9.820921208E0,-1.338610681E0,6.594859649E-1,-3.971002024E-1,1.544179026E0
9.830953208E0,-1.480679895E0,6.125246371E-1,-5.948284775E-1,1.709216282E0
9.840985208E0,-1.556337018E0,5.025328097E-1,-8.330136377E-1,1.835384390E0
9.851017208E0,-1.492017646E0,4.843180020E-1,-1.003597383E0,1.862226702E0
9.861049208E0,-1.362380782E0,4.682799666E-1,-1.111570898E0,1.819603634E0
9.871081208E0,-1.267517894E0,4.386486165E-1,-1.291421311E0,1.861929973E0
9.881113208E0,-1.184367564E0,3.953488152E-1,-1.530074541E0,1.974881088E0
9.891146208E0,-8.412395006E-1,3.061064172E-1,-1.823348951E0,2.031252430E0
9.901178208E0,-1.806087971E-1,2.506815371E-1,-1.949697341E0,1.974026467E0
9.911210208E0,6.182360512E-1,2.606134714E-1,-1.823120033E0,1.942653302E0
9.921242208E0,1.325273182E0,2.305460653E-1,-1.576194162E0,2.072170006E0
9.931274208E0,1.744036149E0,4.993873000E-2,-1.365781522E0,2.215742569E0
9.941306208E0,1.804465953E0,-2.448517169E-1,-1.093207133E0,2.123947168E0
9.951338208E0,1.619230839E0,-4.898395278E-1,-8.493542665E-1,1.892948479E0
9.961370208E0,1.313608571E0,-6.327112721E-1,-7.044877446E-1,1.619318997E0
9.971403208E0,1.094005862E0,-7.781499441E-1,-5.236140686E-1,1.441019728E0
9.981435208E0,9.723405075E-1,-8.706210284E-1,-3.867611557E-1,1.361253551E0
9.991467208E0,1.121134019E0,-9.650266640E-1,-1.809146065E-1,1.490284552E0
1.000149921E1,1.332757618E0,-8.938183947E-1,-3.793088794E-2,1.605176919E0
1.001153121E1,1.485303873E0,-7.751045680E-1,1.193481034E-1,1.679630512E0
1.002156321E1,1.521227996E0,-6.516102040E-1,8.658206105E-2,1.657174381E0
1.003159521E1,1.373512711E0,-5.464645489E-1,3.574402928E-3,1.478233218E0
1.004162721E1,1.128612024E0,-4.942462818E-1,-4.772614360E-2,1.233013492E0
1.005166021E1,8.560990298E-1,-4.899851234E-1,-1.490551749E-1,9.976013308E-1
1.006169221E1,6.443397760E-1,-4.853797102E-1,-2.738391423E-1,8.519126046E-1
1.007172421E1,4.640391272E-1,-5.306564552E-1,-3.972314724E-1,8.091485820E-1
1.008175621E1,3.148854268E-1,-6.363362534E-1,-4.312713307E-1,8.307054954E-1
1.009178821E1,2.176228416E-1,-6.826517563E-1,-3.708655000E-1,8.067926255E-1
1.010182021E1,1.920833731E-1,-7.040376551E-1,-3.377515483E-1,8.041400067E-1
1.011185221E1,2.229993564E-1,-7.537370878E-1,-3.632448238E-1,8.659071039E-1
1.012188421E1,3.499891859E-1,-7.867475438E-1,-4.385174927E-1,9.663134685E-1
1.013191721E1,4.522710210E-1,-7.607419060E-1,-4.552168483E-1,9.952385156E-1
1.014194921E1,4.616066855E-1,-7.862383975E-1,-3.770790437E-1,9.866307085E-1
1.015198121E1,5.022267079E-1,-8.842852405E-1,-2.308194226E-1,1.042818133E0
1.016201321E1,5.960587317E-1,-9.616326477E-1,-2.208317935E-2,1.131596672E0
1.017204521E1,7.298208064E-1,-1.011858622E0,1.987369198E-1,1.263326024E0
1.018207646E1,8.305519599E-1,-1.070799725E0,3.787908161E-1,1.407093136E0
1.019210846E1,8.694441301E-1,-1.076904218E0,4.842316094E-1,1.466334219E0
1.020214046E1,9.421665359E-1,-1.043401427E0,5.002901101E-1,1.492197880E0
1.021217346E1,1.021629612E0,-9.806029156E-1,4.917005503E-1,1.499025875E0
1.022220546E1,1.087168713E0,-8.764979187E-1,4.488708651E-1,1.466857003E0
1.023223746E1,1.094439726E0,-7.939321639E-1,3.981582561E-1,1.409488060E0
1.024226946E1,1.068416693E0,-7.655208354E-1,4.245607737E-1,1.381227074E0
1.025230146E1,1.099489966E0,-7.717449041E-1,5.245198023E-1,1.442078155E0
1.026233346E1,1.086129663E0,-7.804872224E-1,5.864751452E-1,1.460407835E0
1.027236546E1,1.010380154E0,-7.928711866E-1,5.187257963E-1,1.385131483E0
1.028239746E1,8.578935403E-1,-7.557013138E-1,3.858770567E-1,1.206634537E0
1.029243046E1,6.875647330E-1,-6.398159315E-1,1.332323170E-1,9.486097926E-1
1.030246246E1,5.118021083E-1,-5.557477346E-1,-2.709745914E-1,8.026357653E-1
1.031249446E1,3.106046802E-1,-5.219274393E-1,-5.750640115E-1,8.364102681E-1
1.032252646E1,1.125436985E-1,-3.594432566E-1,-7.332203776E-1,8.243043496E-1
1.033255846E1,-1.598944509E-1,-2.580268094E-1,-9.073259014E-1,9.567572112E-1
1.034259046E1,-4.747857249E-1,-2.902133927E-1,-1.102571449E0,1.235034047E0
1.035262246E1,-8.860613322E-1,-3.300802937E-1,-1.208725895E0,1.534625679E0
1.036265546E1,-1.320067406E0,-3.480983426E-1,-1.199911217E0,1.817563573E0
1.037268746E1,-1.565863886E0,-3.290061602E-1,-1.193247145E0,1.995999377E0
1.038271946E1,-1.807633975E0,-4.088705014E-1,-1.220633749E0,2.219158044E0
1.039275146E1,-1.933266665E0,-5.277821101E-1,-1.444530653E0,2.470373001E0
1.040278346E1,-1.861140091E0,-5.452911589E-1,-1.705415289E0,2.582561944E0
1.041281546E1,-1.663352759E0,-3.280470707E-1,-1.489293428E0,2.256624071E0
1.042284746E1,-1.580110627E0,-1.114979240E-1,-1.056938608E0,1.904284801E0
1.043287946E1,-1.814775179E0,-1.432792953E-1,-9.613126588E-1,2.058654885E0
1.044291246E1,-2.314226798E0,-3.346260653E-1,-1.225521437E0,2.639985430E0
1.045294446E1,-2.732665830E0,-3.332411523E-1,-1.583541189E0,3.175864433E0
1.046297646E1,-2.843538979E0,-1.635970540E-1,-1.954230103E0,3.454199359E0
1.047300846E1,-2.184009891E0,-6.635902718E-2,-2.020186695E0,2.975811991E0
1.048304046E1,-8.385240537E-1,1.221765478E-1,-1.285036152E0,1.539275027E0
1.049307246E1,2.590076798E-1,1.718656017E-1,-3.039552265E-1,4.347545779E-1
1.050310446E1,7.363714421E-1,8.876906589E-2,4.671089154E-1,8.765349888E-1
1.051313646E1,6.884950250E-1,1.612062737E-2,9.334582776E-1,1.160012772E0
1.052316846E1,3.935737467E-1,1.943599865E-2,1.155811517E0,1.221138122E0
1.053320146E1,1.559522581E-1,2.379407465E-2,1.250199611E0,1.260113618E0
1.054323346E1,7.961978137E-2,1.243677919E-1,1.305861011E0,1.314184019E0
1.055326546E1,1.381632739E-1,3.615109782E-1,1.327731351E0,1.382985835E0
1.056329746E1,3.043487442E-1,6.436821105E-1,1.415088168E0,1.584117843E0
1.057332946E1,5.401330376E-1,9.180511567E-1,1.535788148E0,1.869012269E0
1.058336146E1,8.269570917E-1,1.194795342E0,1.568335505E0,2.138006126E0
1.059339346E1,1.070569053E0,1.427450352E0,1.420495089E0,2.280688251E0
1.060342546E1,1.072231416E0,1.472948268E0,1.063523743E0,2.109582793E0
1.061345846E1,8.671689785E-1,1.320078808E0,6.743120188E-1,1.717348769E0
1.062349046E1,5.833264196E-1,1.080449093E0,4.386879390E-1,1.303873867E0
1.063352246E1,3.329638481E-1,8.178455217E-1,3.638289607E-1,9.550433153E-1
1.064355446E1,1.949701434E-1,5.550323278E-1,3.291549718E-1,6.741047672E-1
1.065358646E1,1.717455876E-1,3.579693197E-1,3.202601874E-1,5.101030958E-1
1.066361846E1,2.320204407E-1,2.196231741E-1,4.396591616E-1,5.434776921E-1
1.067365046E1,3.360125864E-1,1.031280734E-1,5.777481759E-1,6.762638630E-1
1.068368246E1,4.309427172E-1,-3.947192162E-2,6.340352279E-1,7.676394520E-1
1.069371546E1,5.099245673E-1,-1.452756809E-1,7.364398545E-1,9.074534408E-1
1.070374746E1,5.502686012E-1,-2.333685163E-1,8.197129762E-1,1.014487931E0
1.071377946E1,6.554652733E-1,-2.302300233E-1,8.613609391E-1,1.106608899E0
1.072381146E1,6.838423955E-1,-9.030103639E-2,7.575980043E-1,1.024572806E0
1.073384346E1,6.094605500E-1,2.849932909E-3,6.214613754E-1,8.704392714E-1
1.074387546E1,5.117781347E-1,2.251572713E-2,5.977409756E-1,7.872217547E-1
1.075390746E1,4.685707194E-1,5.168807074E-2,6.167485195E-1,7.762788881E-1
1.076393946E1,4.063265240E-1,9.227344841E-2,6.503179693E-1,7.723529599E-1
1.077397246E1,3.451588011E-1,8.858195499E-2,7.026347619E-1,7.878305461E-1
1.078400446E1,3.332357436E-1,6.494809404E-2,7.722891337E-1,8.436200695E-1
1.079403646E1,3.430976576E-1,4.796061695E-2,8.561335284E-1,9.235696193E-1
1.080406846E1,3.651200259E-1,8.715991214E-2,9.406012362E-1,1.012738944E0
1.081410046E1,3.498780888E-1,1.459102499E-1,9.090929300E-1,9.849641787E-1
1.082413246E1,2.837846714E-1,1.363297333E-1,8.353712350E-1,8.927287585E-1
1.083416446E1,2.482189822E-1,1.887022206E-1,7.354072362E-1,7.987771869E-1
1.084419646E1,2.557390863E-1,2.818049504E-1,6.901556343E-1,7.881188425E-1
1.085422946E1,2.301651192E-1,3.846161047E-1,6.450320864E-1,7.854756027E-1
1.086426146E1,2.014786792E-1,4.601333334E-1,6.276038754E-1,8.038675059E-1
1.087429346E1,1.037535793E-1,6.058016548E-1,4.819567502E-1,7.810523408E-1
1.088432546E1,-7.194998860E-2,7.321772343E-1,2.462835538E-1,7.758323866E-1
1.089435746E1,-3.342052120E-1,8.294425969E-1,-3.593698740E-3,8.942488803E-1
1.090438946E1,-6.367419040E-1,8.099434483E-1,-3.167425025E-1,1.077856417E0
1.091442146E1,-8.547038841E-1,5.638810654E-1,-5.093702513E-1,1.143651450E0
1.092445346E1,-8.486841756E-1,2.178060056E-1,-5.105139667E-1,1.014065479E0
1.093448646E1,-6.593004620E-1,-4.029769465E-2,-2.908410913E-1,7.217267792E-1
1.094451846E1,-4.521043754E-1,-1.774537857E-1,7.193537056E-2,4.909815779E-1
1.095455046E1,-4.241248637E-1,-2.567660035E-1,3.198310018E-1,5.900021613E-1
1.096458246E1,-5.219569677E-1,-2.592653958E-1,3.620765501E-1,6.861173732E-1
1.097461446E1,-6.942685658E-1,-1.875978278E-1,1.352899522E-1,7.317821790E-1
1.098464646E1,-9.635351855E-1,-3.349592105E-2,-1.517282295E-1,9.759833431E-1
1.099467846E1,-1.156301513E0,7.201518506E-2,-4.387914348E-1,1.238853220E0
1.100471046E1,-1.186630436E0,1.001682128E-1,-8.400080770E-1,1.457305401E0
1.101474346E1,-1.261346743E0,1.663623485E-1,-1.131021076E0,1.702316278E0
1.102477546E1,-1.376764932E0,1.563039681E-1,-1.510877255E0,2.050039680E0
1.103480746E1,-1.521934340E0,1.353858465E-1,-1.790288209E0,2.353666360E0
1.104483946E1,-1.616936976E0,2.184855983E-1,-2.092801512E0,2.653684102E0
1.105487146E1,-1.182169595E0,2.935799271E-1,-2.497292596E0,2.778521987E0
1.106490346E1,-2.481119782E-1,4.113992760E-1,-2.603240635E0,2.647200544E0
1.107493546E1,8.406641346E-1,6.135799134E-1,-2.164321146E0,2.401558352E0
1.108496746E1,1.653594925E0,5.824880750E-1,-1.514970891E0,2.317068263E0
1.109500046E1,2.117042314E0,2.963349889E-1,-9.542743653E-1,2.341008789E0
1.110503246E1,2.225485361E0,8.816607177E-2,-5.815015036E-1,2.301891037E0
1.111506446E1,2.015768539E0,-9.567068070E-2,-3.612053150E-1,2.050108525E0
1.112509646E1,1.588898408E0,-3.271211641E-1,-2.134958768E-1,1.636211140E0
1.113512846E1,1.152278629E0,-4.874199499E-1,-2.318128645E-1,1.272423456E0
1.114516046E1,9.638146824E-1,-5.829345100E-1,-3.600615996E-1,1.182537839E0
1.115519246E1,1.070865507E0,-6.448034602E-1,-3.774974120E-1,1.305767488E0
1.116522446E1,1.315005471E0,-6.720602560E-1,-1.711977035E-1,1.486678523E0
1.117525850E1,1.607353975E0,-6.280128881E-1,1.407056433E-1,1.731411293E0
1.118529050E1,1.799783503E0,-5.848314929E-1,3.246374130E-1,1.920061973E0
1.119532250E1,1.716413317E0,-6.086681060E-1,2.861908007E-1,1.843490362E0
1.120535450E1,1.311721675E0,-6.940392087E-1,2.056845814E-1,1.498202364E0
1.121538650E1,8.450606561E-1,-8.368479493E-1,7.629154623E-2,1.191747625E0
1.122541850E1,3.644680613E-1,-9.724717775E-1,-6.251784503E-2,1.040407039E0
1.123545050E1,-6.720614254E-2,-1.138076765E0,-1.313161844E-1,1.147597198E0
1.124548250E1,-1.284475404E-1,-1.178793121E0,-1.431369156E-1,1.194378570E0
1.125551550E1,1.071952504E-1,-1.061945287E0,-9.176035523E-2,1.071278944E0
1.126554750E1,3.830423266E-1,-8.107072408E-1,3.387876749E-2,8.972822439E-1
1.127557950E1,5.605222785E-1,-5.841049764E-1,1.004066330E-1,8.157483314E-1
1.128561150E1,5.517461926E-1,-5.353410982E-1,6.389311016E-2,7.714248388E-1
1.129564350E1,4.380850911E-1,-5.388669692E-1,-1.015310526E-1,7.018580428E-1
1.130567550E1,2.412029082E-1,-6.420581925E-1,-2.980395985E-1,7.478269637E-1
1.131570750E1,6.153843641E-2,-7.901700653E-1,-3.105666733E-1,8.512387267E-1
1.132573950E1,4.099307477E-2,-8.480746034E-1,-1.078138858E-1,8.558824680E-1
1.133577250E1,1.367149186E-1,-8.046995191E-1,2.167703176E-1,8.445245145E-1
1.134580450E1,2.776825172E-1,-8.087205032E-1,5.876083356E-1,1.037506621E0
1.135583650E1,4.574621791E-1,-8.454717153E-1,9.360199428E-1,1.341725531E0
1.136586850E1,6.131554055E-1,-8.801638305E-1,1.230112086E0,1.632122441E0
1.137590050E1,6.348731339E-1,-9.053498349E-1,1.382089407E0,1.769998121E0
1.138593250E1,5.939905715E-1,-9.371291596E-1,1.427384863E0,1.807889213E0
1.139596450E1,5.240871084E-1,-9.719917211E-1,1.385128790E0,1.771444881E0
1.140599650E1,4.296072131E-1,-1.006215474E0,1.343104851E0,1.732328658E0
1.141602950E1,3.159332478E-1,-9.582510567E-1,1.143753389E0,1.525198583E0
1.142606150E1,1.954034221E-1,-9.023757948E-1,8.419458443E-1,1.249534864E0
1.143609350E1,5.832363725E-2,-8.946697493E-1,5.957435668E-1,1.076450651E0
1.144612550E1,-1.822752535E-2,-9.438519958E-1,4.389493096E-1,1.041088531E0
1.145615750E1,-3.517334104E-2,-1.014510334E0,4.369150633E-1,1.105153001E0
1.146618950E1,-6.629748523E-2,-1.076830690E0,5.636066848E-1,1.217214930E0
1.147622150E1,-1.084225810E-1,-1.098788154E0,6.867543089E-1,1.300277795E0
1.148625350E1,-2.582896417E-1,-1.024412448E0,6.707803005E-1,1.251431426E0
1.149628650E1,-4.752593493E-1,-9.238188502E-1,5.078558224E-1,1.156386723E0
1.150631850E1,-6.667416286E-1,-8.375874759E-1,2.368332839E-1,1.096442969E0
1.151635050E1,-8.753153193E-1,-7.501736484E-1,-7.768552244E-2,1.155410079E0
1.152638250E1,-1.151832486E0,-6.550672241E-1,-3.854852933E-1,1.380010890E0
1.153641450E1,-1.480958807E0,-5.953386471E-1,-6.999672621E-1,1.742877294E0
1.154644650E1,-1.902893888E0,-6.667549311E-1,-9.277636743E-1,2.219529843E0
1.155647850E1,-2.183470777E0,-7.945614704E-1,-1.185073323E0,2.608308139E0
1.156651050E1,-2.271297711E0,-8.521537672E-1,-1.517975190E0,2.861679229E0
1.157654350E1,-2.054512190E0,-7.188407587E-1,-1.639852799E0,2.725228354E0
1.158657550E1,-1.669661905E0,-5.158812721E-1,-1.306611208E0,2.182003028E0
1.159660750E1,-1.494685730E0,-3.791669382E-1,-9.377548116E-1,1.804781728E0
1.160663950E1,-1.628605680E0,-4.086045992E-1,-1.034852505E0,1.972367584E0
1.161667150E1,-1.972814893E0,-4.452957313E-1,-1.419424464E0,2.470840484E0
1.162670350E1,-1.987390248E0,-2.585868265E-1,-1.527213791E0,2.519716077E0
1.163673550E1,-1.691761456E0,-2.168268894E-1,-1.501225256E0,2.272168126E0
1.164676750E1,-1.268086243E0,-3.672194687E-1,-1.124510202E0,1.734190316E0
1.165680050E1,-7.749472779E-1,-5.803172962E-1,-6.423429519E-1,1.161858819E0
1.166683250E1,-3.190702790E-1,-6.100721687E-1,-1.253584564E-1,6.997918523E-1
1.167686450E1,-1.025817972E-1,-4.630470009E-1,2.687830549E-1,5.451420740E-1
1.168689650E1,-1.759941745E-1,-4.571607551E-1,5.492652190E-1,7.359770283E-1
1.169692850E1,-4.304854649E-1,-4.680602574E-1,7.785374683E-1,1.005245607E0
1.170696050E1,-5.898992747E-1,-3.858589303E-1,8.889551193E-1,1.134508472E0
1.171699250E1,-6.358016717E-1,-2.808629639E-1,1.045349427E0,1.255341864E0
1.172702450E1,-6.762579721E-1,-7.515499368E-2,1.224824449E0,1.401130989E0
1.173705750E1,-6.729250592E-1,2.728018463E-1,1.205006481E0,1.406872276E0
1.174708950E1,-6.246679884E-1,6.304348049E-1,1.192403392E0,1.486433311E0
1.175712150E1,-4.627661884E-1,9.448679495E-1,1.242045084E0,1.627760418E0
1.176715350E1,-2.479324687E-1,1.192115709E0,1.265783610E0,1.756365144E0
1.177718550E1,-8.063895106E-3,1.325373608E0,1.370308437E0,1.906416911E0
1.178721750E1,1.556534654E-1,1.364481394E0,1.524855024E0,2.052125805E0
1.179724950E1,2.419648004E-1,1.310809071E0,1.564154161E0,2.055078009E0
1.180728150E1,3.051720321E-1,1.156254297E0,1.591513283E0,1.990720598E0
1.181731450E1,3.123377949E-1,9.305462180E-1,1.558701047E0,1.842015233E0
1.182734650E1,3.225066876E-1,7.130884141E-1,1.485604420E0,1.679144467E0
1.183737850E1,3.469638366E-1,5.570383613E-1,1.404209424E0,1.549993466E0
1.184741050E1,3.593289435E-1,4.458595490E-1,1.224725631E0,1.351984060E0
1.185744250E1,3.686961830E-1,3.071918066E-1,1.037631687E0,1.143233659E0
1.186747450E1,3.158221507E-1,8.960857987E-2,9.639427364E-1,1.018311803E0
1.187750650E1,2.686210871E-1,-1.140150042E-1,9.699554282E-1,1.012901892E0
1.188753850E1,2.849131840E-1,-2.729759471E-1,1.051070343E0,1.122693304E0
1.189757050E1,3.440887606E-1,-2.741152771E-1,1.133955794E0,1.216302595E0
1.190760350E1,4.818830752E-1,-2.366882730E-1,1.180901919E0,1.297213159E0
1.191763550E1,5.642697591E-1,-1.887057289E-1,1.289648436E0,1.420282824E0
1.192766750E1,5.872808915E-1,-6.769760102E-2,1.432544446E0,1.549730751E0
1.193769950E1,7.078428769E-1,9.199716747E-2,1.457718464E0,1.623098314E0
1.194773150E1,7.693357050E-1,2.013593960E-1,1.436345136E0,1.641800957E0
1.195776350E1,7.047994012E-1,2.708731422E-1,1.375802481E0,1.569377877E0
1.196779550E1,5.761197263E-1,2.786990556E-1,1.329705371E0,1.475704400E0
1.197782750E1,4.592198521E-1,3.615254501E-1,1.323909611E0,1.447176624E0
1.198786050E1,3.711672163E-1,4.509834641E-1,1.248409193E0,1.378287597E0
1.199789250E1,2.596163750E-1,4.559372252E-1,1.078089157E0,1.198981086E0
1.200792450E1,1.908917105E-1,4.616084397E-1,9.143144935E-1,1.041869949E0
1.201795650E1,1.565036505E-1,5.774061137E-1,8.401016325E-1,1.031339889E0
1.202798850E1,8.630782664E-2,7.169300348E-1,6.909683973E-1,9.994373626E-1
1.203802050E1,-6.456144691E-2,8.779223004E-1,4.362882417E-1,9.824780791E-1
1.204805250E1,-2.347101599E-1,9.563273227E-1,2.915088433E-1,1.026950930E0
1.205808450E1,-3.925826436E-1,9.399396238E-1,2.451117718E-1,1.047705784E0
1.206811750E1,-6.221285427E-1,9.659319592E-1,4.322846532E-3,1.148950460E0
1.207814950E1,-8.405711639E-1,9.543383923E-1,-1.510786039E-1,1.280682003E0
1.208818150E1,-7.909481835E-1,9.215396056E-1,-1.510914677E-1,1.223790385E0
1.209821350E1,-7.065149742E-1,9.015257558E-1,-2.193173647E-2,1.145597267E0
1.210824550E1,-8.020690030E-1,8.405971840E-1,-1.453442395E-2,1.161950757E0
1.211827750E1,-1.064690262E0,6.930584845E-1,-2.907218081E-1,1.303232361E0
1.212830950E1,-1.276444838E0,5.902071306E-1,-8.157199126E-1,1.625747477E0
1.213834150E1,-1.508123217E0,7.596714270E-1,-1.287479119E0,2.123473286E0
1.214837450E1,-1.461023895E0,1.119697943E0,-1.426980820E0,2.329074616E0
1.215840650E1,-1.098059152E0,1.453579512E0,-1.500092066E0,2.359852433E0
1.216843850E1,-9.543433625E-1,1.623131224E0,-1.646908634E0,2.501526389E0
1.217847025E1,-9.648613340E-1,1.446041574E0,-2.098816543E0,2.725256779E0
1.218850225E1,-1.008218438E0,1.150230349E0,-2.418667426E0,2.861727868E0
1.219853425E1,-1.073166971E0,8.865106907E-1,-2.340072661E0,2.722779574E0
1.220856625E1,-8.638267100E-1,6.617346579E-1,-2.173132315E0,2.430348412E0
1.221859825E1,-3.349062932E-1,6.253497738E-1,-2.122084953E0,2.237514048E0
1.222863125E1,5.409750366E-1,8.361518383E-1,-2.213578091E0,2.427288992E0
1.223866325E1,1.562908704E0,1.045637987E0,-2.144596733E0,2.852251315E0
1.224869525E1,2.413357569E0,1.140258800E0,-1.712395695E0,3.171243274E0
1.225872725E1,3.030925868E0,1.121272599E0,-1.275609271E0,3.474326247E0
1.226875925E1,3.188315957E0,9.079427826E-1,-9.452263838E-1,3.447197652E0
1.227879125E1,2.953601119E0,4.843868530E-1,-7.388395518E-1,3.082900270E0
1.228882325E1,2.560613263E0,6.877085745E-2,-6.448478991E-1,2.641457652E0
1.229885525E1,2.158086260E0,9.782391787E-4,-4.627866536E-1,2.207149462E0
1.230888825E1,1.924056131E0,1.837633699E-2,-8.848532975E-2,1.926177390E0
1.231892025E1,1.943553087E0,2.302838176E-2,3.785499108E-1,1.980209318E0
1.232895225E1,2.010735256E0,4.700664371E-2,8.070894223E-1,2.167177711E0
1.233898425E1,1.945507811E0,1.077437192E-2,1.043074860E0,2.207514868E0
1.234901625E1,1.691396005E0,-8.783541173E-2,1.010284844E0,1.972108256E0
1.235904825E1,1.362065617E0,-1.943409830E-1,7.812768888E-1,1.582208817E0
1.236908025E1,1.051401880E0,-2.086602294E-1,5.394863355E-1,1.200012713E0
1.237911225E1,8.294316334E-1,-2.212434375E-1,3.544968045E-1,9.287483391E-1
1.238914525E1,6.722994071E-1,-3.272297761E-1,2.101600403E-1,7.766807978E-1
1.239917725E1,5.067612237E-1,-4.500283214E-1,1.448828942E-1,6.930537360E-1
1.240920925E1,3.130534941E-1,-5.510217226E-1,9.589550614E-2,6.409550507E-1
1.241924125E1,9.618845165E-2,-5.902042070E-1,-1.053054303E-1,6.071922742E-1
1.242927325E1,-6.788266540E-2,-6.052219033E-1,-3.209256005E-1,6.884002103E-1
1.243930525E1,-1.797685522E-1,-6.789769274E-1,-4.672632819E-1,8.436002459E-1
1.244933725E1,-1.688184714E-1,-7.983262002E-1,-4.931769723E-1,9.534400476E-1
1.245936925E1,-4.410847127E-2,-8.821179700E-1,-3.244216508E-1,9.409182099E-1
1.246940225E1,1.064158165E-1,-9.097516188E-1,-1.991105568E-1,9.373459061E-1
1.247943425E1,2.213124347E-1,-8.370993796E-1,-9.254446685E-2,8.707921930E-1
1.248946625E1,3.246888685E-1,-7.477144557E-1,3.622993290E-2,8.159732696E-1
1.249949825E1,3.562737733E-1,-7.074771336E-1,1.242398840E-1,8.018044929E-1
1.250953025E1,4.087227130E-1,-7.579520532E-1,1.957712120E-1,8.831035832E-1
1.251956225E1,4.697582889E-1,-8.484874168E-1,4.137799698E-1,1.054427622E0
1.252959425E1,5.390249902E-1,-9.143855372E-1,6.351450294E-1,1.236955156E0
1.253962625E1,6.324909782E-1,-9.299663204E-1,8.339509463E-1,1.400127271E0
1.254965825E1,7.740082151E-1,-8.576195982E-1,1.036741741E0,1.552235011E0
1.255969125E1,8.979621702E-1,-6.894437358E-1,1.213388464E0,1.659512064E0
1.256972325E1,1.029397638E0,-6.060457760E-1,1.132749513E0,1.646229765E0
1.257975525E1,9.893804634E-1,-6.632835853E-1,9.385336608E-1,1.516464391E0
1.258978725E1,9.448375440E-1,-8.151974639E-1,7.648006046E-1,1.463620461E0
1.259981925E1,8.621602535E-1,-9.402773005E-1,8.600114018E-1,1.538525696E0
1.260985125E1,8.284639192E-1,-8.578330216E-1,8.099405247E-1,1.441607995E0
1.261988325E1,7.947289932E-1,-6.262359193E-1,6.522341019E-1,1.203816815E0
1.262991525E1,7.818890923E-1,-4.715966535E-1,6.455250067E-1,1.118238119E0
1.263994825E1,7.163382965E-1,-4.168181831E-1,6.545308882E-1,1.056072269E0
1.264998025E1,3.855116057E-1,-3.088075384E-1,3.928235489E-1,6.311035054E-1
1.266001225E1,5.715068579E-3,-2.435733694E-1,-1.204900646E-1,2.718060043E-1
1.267004425E1,-3.135247797E-1,-2.305571750E-1,-5.382362008E-1,6.641931995E-1
1.268007625E1,-6.162667090E-1,-2.018309739E-1,-8.461242646E-1,1.066042527E0
1.269010825E1,-9.516097891E-1,-2.088838854E-1,-1.117698196E0,1.482714715E0
1.270014025E1,-1.304916685E0,-3.252311978E-1,-1.347541718E0,1.903799246E0
1.271017225E1,-1.737175026E0,-4.610462299E-1,-1.593735809E0,2.402152062E0
1.272020525E1,-2.087830210E0,-5.072213995E-1,-1.992028844E0,2.929929598E0
1.273023725E1,-2.303270870E0,-4.890678415E-1,-2.313495896E0,3.300985810E0
1.274026925E1,-2.380307352E0,-4.164015689E-1,-2.240634327E0,3.295405217E0
1.275030125E1,-2.321613586E0,-3.103269374E-1,-1.955025324E0,3.050953370E0
1.276033325E1,-2.337450185E0,-1.875719538E-1,-1.902948852E0,3.019945519E0
1.277036525E1,-2.538544117E0,-3.534437209E-2,-2.091399350E0,3.289286655E0
1.278039725E1,-2.737366406E0,1.374961066E-1,-2.252089607E0,3.547391664E0
1.279042925E1,-2.655466796E0,2.882431734E-1,-2.243607051E0,3.488317736E0
1.280046225E1,-2.263464780E0,4.441056767E-1,-2.008640783E0,3.058617410E0
1.281049425E1,-1.390181369E0,4.575858477E-1,-1.490970994E0,2.089254305E0
1.282052625E1,-4.858521652E-1,4.030906749E-1,-7.544042552E-1,9.836972089E-1
1.283055825E1,2.040514541E-1,3.713321078E-1,1.334381390E-1,4.442187154E-1
1.284059025E1,7.184508955E-1,3.432090470E-1,8.526766545E-1,1.166628311E0
1.285062225E1,8.478883696E-1,4.059026009E-1,1.384351695E0,1.673350299E0
1.286065425E1,7.131141418E-1,4.623320326E-1,1.584548664E0,1.798075960E0
1.287068625E1,4.573937666E-1,4.196125674E-1,1.539561356E0,1.659979799E0
1.288071925E1,1.262817317E-1,2.491744173E-1,1.466671135E0,1.493036900E0
1.289075125E1,-7.212949812E-2,1.042599481E-1,1.563074180E0,1.568207159E0
1.290078325E1,-1.530157864E-1,1.287261602E-1,1.714128225E0,1.725751960E0
1.291081525E1,-7.741830468E-2,2.799278480E-1,1.945105523E0,1.966669441E0
1.292084725E1,1.440695465E-2,4.661356464E-1,2.034134059E0,2.086909526E0
1.293087925E1,4.788577259E-2,5.917469949E-1,1.896515746E0,1.987266848E0
1.294091125E1,-1.984135687E-2,7.072707269E-1,1.619913794E0,1.767695183E0
1.295094325E1,-1.391672409E-1,7.422233355E-1,1.222864462E0,1.437240583E0
1.296097525E1,-2.422630084E-1,6.681282958E-1,9.415584254E-1,1.179669044E0
1.297100825E1,-2.915439266E-1,4.821558478E-1,8.653487402E-1,1.032618306E0
1.298104025E1,-2.276402915E-1,3.156894189E-1,8.728337610E-1,9.556770824E-1
1.299107225E1,-1.652961087E-1,1.839756238E-1,8.624964684E-1,8.972569263E-1
1.300110425E1,-1.056018841E-1,6.209743023E-4,9.193518698E-1,9.253972142E-1
1.301113625E1,5.037376285E-3,-1.513370508E-1,9.869614702E-1,9.985095001E-1
1.302116825E1,2.048630476E-1,-2.227768698E-1,1.020938471E0,1.064853870E0
1.303120025E1,4.250440460E-1,-1.869498101E-1,1.037382011E0,1.136562409E0
1.304123225E1,6.970489168E-1,-1.536165878E-1,1.132076499E0,1.338309549E0
1.305126525E1,9.377483797E-1,-1.064868602E-1,1.201044407E0,1.527487854E0
1.306129725E1,1.009377356E0,-5.036791563E-2,1.154743815E0,1.534539948E0
1.307132925E1,9.639585239E-1,-6.809608877E-2,1.072847713E0,1.443902811E0
1.308136125E1,8.938340360E-1,-1.065356845E-1,1.020766563E0,1.360975206E0
1.309139325E1,8.265653282E-1,-1.571187776E-1,9.704039097E-1,1.284359879E0
1.310142525E1,7.883754086E-1,-1.615769872E-1,9.758447438E-1,1.264877809E0
1.311145725E1,7.950359720E-1,-1.653118962E-1,1.000878428E0,1.288863006E0
1.312148925E1,7.819510728E-1,-1.846556550E-1,1.068917799E0,1.337209951E0
1.313152225E1,7.714026958E-1,-2.333875197E-1,1.184901999E0,1.433012422E0
1.314155425E1,7.942378271E-1,-2.369426268E-1,1.388586248E0,1.617135524E0
1.315158625E1,8.056562698E-1,-1.851017976E-1,1.467106168E0,1.683967105E0
1.316161825E1,7.246115220E-1,-1.156509089E-1,1.441109447E0,1.617168337E0
1.317165025E1,6.471072632E-1,-3.395887434E-2,1.314439461E0,1.465486988E0
1.318168162E1,6.169023013E-1,7.490370959E-2,1.165100988E0,1.320469359E0
1.319171362E1,6.452425861E-1,2.423857999E-1,1.042252157E0,1.249551291E0
1.320174563E1,7.062916106E-1,4.248624900E-1,9.292383420E-1,1.242111054E0
1.321177863E1,6.952058744E-1,5.334093243E-1,9.366917878E-1,1.282664500E0
1.322181062E1,6.210111398E-1,6.686446050E-1,8.081413364E-1,1.218947441E0
1.323184262E1,4.221023118E-1,7.616583109E-1,5.146350843E-1,1.011505321E0
1.324187462E1,5.380958676E-2,7.810432926E-1,1.954320735E-1,8.069187021E-1
1.325190662E1,-4.702792758E-1,8.565638834E-1,-1.473036414E-1,9.882118429E-1
1.326193863E1,-9.497766870E-1,8.968704951E-1,-5.606725520E-1,1.421550615E0
1.327197063E1,-1.280929068E0,9.197395402E-1,-8.292696655E-1,1.781681306E0
1.328200262E1,-1.524484311E0,8.659248371E-1,-8.691482610E-1,1.956858947E0
1.329203562E1,-1.705555038E0,7.343700863E-1,-7.826743734E-1,2.015141828E0
1.330206762E1,-1.988104777E0,7.080393434E-1,-7.960036862E-1,2.255549198E0
1.331209963E1,-2.194919626E0,8.213118973E-1,-9.918854105E-1,2.544810811E0
1.332213163E1,-2.236416730E0,1.007058204E0,-1.213422963E0,2.736443185E0
1.333216362E1,-2.134510871E0,1.187585871E0,-1.171331781E0,2.708969362E0
1.334219562E1,-1.972358810E0,1.230597405E0,-1.086340747E0,2.566068095E0
1.335222762E1,-1.969201314E0,1.182129834E0,-1.184655831E0,2.584297622E0
1.336225962E1,-2.023069373E0,1.153894946E0,-1.427902926E0,2.731883965E0
1.337229163E1,-1.951966646E0,1.085236793E0,-1.612443976E0,2.754612179E0
1.338232463E1,-1.851351852E0,9.839798288E-1,-1.854236283E0,2.798912678E0
1.339235662E1,-1.642436684E0,8.492266510E-1,-2.057928718E0,2.766560098E0
1.340238862E1,-1.061062065E0,8.719055155E-1,-1.931413683E0,2.369900999E0
1.341242062E1,-4.879501462E-2,1.064936868E0,-1.499604993E0,1.839914841E0
1.342245263E1,1.012710269E0,1.325839777E0,-1.008223116E0,1.949345289E0
1.343248463E1,1.955594258E0,1.507738908E0,-4.866286755E-1,2.516829948E0
1.344251663E1,2.772812812E0,1.526873045E0,-2.377068579E-2,3.165501103E0
1.345254862E1,3.143132767E0,1.303727069E0,3.071542382E-1,3.416625761E0
1.346258162E1,3.006452932E0,8.677390820E-1,7.080025059E-1,3.208270234E0
1.347261362E1,2.635649997E0,4.239659657E-1,9.076954454E-1,2.819629243E0
1.348264563E1,2.193471270E0,8.399042889E-2,9.378384268E-1,2.387029853E0
1.349267763E1,1.796925384E0,-1.931876197E-1,8.340228671E-1,1.990441266E0
1.350270962E1,1.484672374E0,-4.585882066E-1,6.422616756E-1,1.681384923E0
1.351274162E1,1.175569843E0,-4.828997599E-1,4.704739881E-1,1.355176154E0
1.352277362E1,1.124183342E0,-3.381779565E-1,3.351115304E-1,1.220840799E0
1.353280563E1,1.113619178E0,-9.169501260E-2,2.397177154E-1,1.142812422E0
1.354283863E1,9.758681327E-1,1.050741729E-1,6.941288173E-2,9.839600309E-1
1.355287062E1,7.598088366E-1,2.073434365E-1,-9.632001400E-2,7.934597116E-1
1.356290262E1,5.584792614E-1,2.191919419E-1,-1.456903946E-1,6.173895722E-1
1.357293462E1,4.387569362E-1,2.117031205E-1,-6.271723509E-2,4.911815467E-1
1.358296662E1,4.368630230E-1,2.058102965E-1,9.350457966E-2,4.918844229E-1
1.359299863E1,4.570253921E-1,1.939174984E-1,2.507783085E-1,5.562067648E-1
1.360303063E1,4.115439945E-1,1.956346795E-1,2.524061733E-1,5.209129137E-1
1.361306262E1,3.168886828E-1,1.173745219E-1,7.638627112E-2,3.464535728E-1
1.362309462E1,1.336322665E-1,-4.492386550E-2,-1.335287708E-1,1.941794762E-1
1.363312762E1,-4.729988158E-2,-2.201355363E-1,-3.350705999E-1,4.036944885E-1
1.364315963E1,-1.376188982E-1,-3.930529059E-1,-5.242555082E-1,6.695322142E-1
1.365319163E1,-2.183625144E-1,-5.847445156E-1,-6.285008383E-1,8.857887106E-1
1.366322362E1,-1.103626871E-1,-7.700264074E-1,-5.020308262E-1,9.258269499E-1
1.367325562E1,1.123314446E-1,-8.666517922E-1,-2.681246585E-1,9.141085903E-1
1.368328762E1,2.910229397E-1,-9.114212912E-1,-5.527197540E-2,9.583517688E-1
1.369331962E1,4.207790869E-1,-9.877634159E-1,1.170378685E-1,1.080013643E0
1.370335163E1,5.493248606E-1,-1.039793987E0,2.691262865E-1,1.206382318E0
1.371338463E1,6.701160568E-1,-1.068837546E0,3.986158007E-1,1.323013147E0
1.372341662E1,8.053586465E-1,-1.060059413E0,5.499300474E-1,1.440399794E0
1.373344862E1,9.311544746E-1,-1.080472774E0,6.815520412E-1,1.580817275E0
1.374348062E1,1.040151252E0,-1.087211836E0,8.293959653E-1,1.718092510E0
1.375351263E1,1.136497579E0,-1.031554676E0,9.612512630E-1,1.811004082E0
1.376354463E1,1.183189934E0,-9.187832281E-1,1.022596741E0,1.813781998E0
1.377357663E1,1.193565234E0,-9.098105295E-1,9.921146214E-1,1.799067700E0
1.378360862E1,1.166792588E0,-9.126139770E-1,8.893433744E-1,1.727773380E0
1.379364162E1,1.123431391E0,-8.694568478E-1,7.284929037E-1,1.596482136E0
1.380367362E1,1.064050577E0,-8.356179875E-1,6.151610005E-1,1.486231512E0
1.381370563E1,9.995563728E-1,-8.062104397E-1,5.174873561E-1,1.384514853E0
1.382373763E1,8.917395633E-1,-7.389391007E-1,3.736955523E-1,1.216913641E0
1.383376962E1,6.751376456E-1,-6.609797823E-1,2.243518174E-1,9.711018747E-1
1.384380162E1,4.980371779E-1,-6.116886315E-1,7.731948674E-2,7.925795326E-1
1.385383362E1,3.143433899E-1,-5.611071463E-1,-3.163986862E-2,6.439363926E-1
1.386386562E1,1.035799170E-1,-5.110311529E-1,-1.852193266E-1,5.533424233E-1
1.387389863E1,-1.377604008E-1,-4.620366021E-1,-4.207194453E-1,6.398910855E-1
1.388393062E1,-4.668726879E-1,-3.700670627E-1,-7.334735620E-1,9.449355554E-1
1.389396262E1,-9.300663078E-1,-1.956335101E-1,-1.178979939E0,1.514361088E0
1.390399462E1,-1.435736441E0,-1.018709220E-1,-1.723169190E0,2.245223568E0
1.391402662E1,-2.001713002E0,-1.720937893E-1,-2.117202528E0,2.918735644E0
1.392405863E1,-2.381651627E0,-3.683443268E-1,-2.244584706E0,3.293342150E0
1.393409063E1,-2.252733970E0,-5.430164458E-1,-2.186643476E0,3.186077038E0
1.394412262E1,-1.802836919E0,-5.869661652E-1,-2.073953013E0,2.809987782E0
1.395415462E1,-1.431626433E0,-5.422991386E-1,-1.802109525E0,2.364580585E0
1.396418762E1,-1.241420016E0,-3.899600212E-1,-1.444784423E0,1.944375093E0
1.397421963E1,-1.310665083E0,-3.209188762E-1,-1.305659866E0,1.877652676E0
1.398425163E1,-1.616006100E0,-4.538962546E-1,-1.382099347E0,2.174326592E0
1.399428363E1,-1.923947958E0,-7.129698618E-1,-1.479240895E0,2.529437762E0
1.400431562E1,-2.151834417E0,-9.730405654E-1,-1.258291572E0,2.675910496E0
1.401434762E1,-2.192192484E0,-1.185798377E0,-8.681062871E-1,2.639210906E0
1.402437962E1,-1.858404179E0,-1.097057963E0,-6.473896837E-1,2.253068057E0
1.403441163E1,-1.156897345E0,-7.339391465E-1,-4.425044167E-1,1.439752859E0
1.404444363E1,-4.247774130E-1,-3.726345751E-1,-6.580690384E-2,5.688786564E-1
1.405447662E1,1.038810486E-1,-1.080492362E-1,3.394215131E-1,3.710429534E-1
1.406450862E1,3.854771072E-1,1.417522949E-1,5.544756728E-1,6.900214381E-1
1.407454062E1,3.503218925E-1,3.469704147E-1,6.810193598E-1,8.407742060E-1
1.408457262E1,1.925236684E-1,4.599228336E-1,8.231143016E-1,9.623468861E-1
1.409460463E1,1.654422891E-1,4.739052804E-1,9.757997203E-1,1.097334252E0
1.410463663E1,2.416250771E-1,4.814421952E-1,1.236417139E0,1.348664749E0
1.411466862E1,3.231095356E-1,4.398933426E-1,1.659436879E0,1.746893437E0
1.412470062E1,4.342890787E-1,3.921097501E-1,2.118586564E0,2.197900382E0
1.413473362E1,5.493652064E-1,3.909082934E-1,2.497005497E0,2.586435361E0
1.414476563E1,5.397441977E-1,4.469889387E-1,2.679766654E0,2.769886682E0
1.415479763E1,4.769076794E-1,4.566552633E-1,2.649319033E0,2.730360105E0
1.416482962E1,3.042855942E-1,5.077312768E-1,2.356861771E0,2.430057238E0
1.417486162E1,1.882622176E-1,6.816885737E-1,1.777438953E0,1.912963984E0
1.418489421E1,2.726088881E-2,6.325639223E-1,1.133343006E0,1.298209013E0
1.419492621E1,-2.534387916E-1,3.485421462E-1,7.551211238E-1,8.694370365E-1
1.420495821E1,-3.628454590E-1,1.560203782E-1,5.630266410E-1,6.877486343E-1
1.421499121E1,-3.468240881E-1,7.702464089E-2,4.753260076E-1,5.934261175E-1
1.422502321E1,-2.729263920E-1,-5.963092849E-2,4.752605188E-1,5.512868797E-1
1.423505521E1,-1.375270969E-1,-2.364096531E-1,5.714957482E-1,6.335697409E-1
1.424508721E1,9.555812180E-2,-3.163497157E-1,7.788140416E-1,8.460258913E-1
1.425511921E1,3.380345535E-1,-3.146231791E-1,9.952879053E-1,1.097202406E0
1.426515121E1,5.398085171E-1,-2.853578648E-1,1.166624188E0,1.316751435E0
1.427518321E1,6.816298091E-1,-2.668809557E-1,1.255955025E0,1.453708246E0
1.428521521E1,7.493575233E-1,-2.333125292E-1,1.237459697E0,1.465359320E0
1.429524821E1,7.852161580E-1,-2.082754827E-1,1.194213690E0,1.444330097E0
1.430528021E1,7.896600419E-1,-1.672629659E-1,1.119038377E0,1.379777798E0
1.431531221E1,7.664629680E-1,-9.073767722E-2,9.913796264E-1,1.256396582E0
1.432534421E1,7.577494472E-1,-4.244727731E-2,9.104553312E-1,1.185291064E0
1.433537621E1,7.255160862E-1,-3.878180400E-2,8.440064031E-1,1.113653639E0
1.434540821E1,6.773841459E-1,-7.881768957E-2,8.463634157E-1,1.086918829E0
1.435544021E1,6.421564257E-1,-5.640443489E-2,9.075469261E-1,1.113188106E0
1.436547221E1,6.075233674E-1,-1.685152933E-2,9.276847368E-1,1.109039038E0
1.437550421E1,5.634926641E-1,-6.244183123E-2,9.281256169E-1,1.087584537E0
1.438553721E1,4.993756056E-1,-9.493188500E-2,9.631656414E-1,1.089071215E0
1.439556921E1,4.885600108E-1,-6.087258473E-2,1.010010610E0,1.123618168E0
1.440560121E1,5.222317868E-1,3.581346497E-2,1.004713617E0,1.132898096E0
1.441563321E1,6.028268838E-1,1.076349610E-1,1.018639346E0,1.188533404E0
1.442566521E1,5.974760967E-1,2.478253184E-1,9.414104909E-1,1.142212234E0
1.443569721E1,5.668361020E-1,4.046745394E-1,8.320652193E-1,1.085079342E0
1.444572921E1,4.397375143E-1,5.902714500E-1,6.322184980E-1,9.703039190E-1
1.445576121E1,-5.081581235E-2,6.882185979E-1,2.492340589E-1,7.337197703E-1
1.446579321E1,-6.747879821E-1,6.477832013E-1,3.254384816E-2,9.359599344E-1
1.447582621E1,-1.085418057E0,6.851476403E-1,-4.855761766E-2,1.284491140E0
1.448585821E1,-1.136114001E0,8.247822198E-1,-1.418435115E-1,1.411077714E0
1.449589021E1,-1.050309620E0,8.788189709E-1,-1.469878918E-1,1.377344736E0
1.450592221E1,-9.971859115E-1,9.402692606E-1,-1.473235220E-1,1.378473882E0
1.451595421E1,-1.240611931E0,9.954403715E-1,-3.789966381E-1,1.635132395E0
1.452598621E1,-1.683995184E0,9.757551353E-1,-9.308375555E-1,2.157405020E0
1.453601821E1,-1.947788225E0,9.496422011E-1,-1.430261108E0,2.596410237E0
1.454605021E1,-1.987283828E0,1.006430798E0,-1.567116360E0,2.723610407E0
1.455608321E1,-1.859011704E0,1.050336517E0,-1.482057499E0,2.599158661E0
1.456611521E1,-1.840659049E0,1.037137232E0,-1.671234221E0,2.693826867E0
1.457614721E1,-2.080455117E0,9.463184244E-1,-2.186589682E0,3.163065995E0
1.458617921E1,-2.353938748E0,7.418588347E-1,-2.581025893E0,3.571145030E0
1.459621121E1,-2.550070149E0,5.304766533E-1,-2.694079469E0,3.747309358E0
1.460624321E1,-2.599481460E0,3.878520269E-1,-2.468441849E0,3.605681380E0
1.461627521E1,-2.388298742E0,3.023031688E-1,-2.061900147E0,3.169667223E0
1.462630721E1,-1.898830658E0,3.382756050E-1,-1.749514405E0,2.603994798E0
1.463634021E1,-1.083843986E0,5.516043245E-1,-1.487743916E0,1.921553298E0
1.464637221E1,-1.271424419E-1,8.581338608E-1,-1.250867363E0,1.522244423E0
1.465640421E1,8.562697685E-1,1.082868890E0,-9.357036084E-1,1.667736248E0
1.466643621E1,2.097551206E0,1.168946263E0,-5.097257620E-1,2.454786504E0
1.467646821E1,3.405334781E0,1.159859179E0,-6.784524322E-2,3.598080219E0
1.468650021E1,4.459874277E0,1.121487264E0,2.181841743E-1,4.603891461E0
1.469653221E1,4.622704030E0,1.039828486E0,3.669870418E-1,4.752401005E0
1.470656421E1,3.948389087E0,8.796940067E-1,6.543700898E-1,4.097784541E0
1.471659621E1,2.989928700E0,7.030718413E-1,9.134608001E-1,3.204433535E0
1.472662921E1,2.367985514E0,4.879771896E-1,9.186262304E-1,2.586378024E0
1.473666121E1,2.000593845E0,3.044701470E-1,8.286492759E-1,2.186718415E0
1.474669321E1,1.665809174E0,1.162953452E-1,7.998365360E-1,1.851535389E0
1.475672521E1,1.300440642E0,2.936552100E-2,6.449730295E-1,1.451894764E0
1.476675721E1,9.596561426E-1,2.873438716E-2,2.895570427E-1,1.002800508E0
1.477678921E1,6.632175118E-1,8.236227170E-2,-1.886329311E-1,6.944230659E-1
1.478682121E1,4.216579235E-1,1.514442010E-1,-4.412250459E-1,6.288165802E-1
1.479685321E1,3.390560621E-1,1.723535518E-1,-4.949708980E-1,6.242282835E-1
1.480688521E1,3.601323509E-1,1.033770186E-1,-4.524224639E-1,5.874250624E-1
1.481691821E1,3.948466855E-1,-8.933142185E-2,-3.662830371E-1,5.459370580E-1
1.482695021E1,3.832329458E-1,-3.030016918E-1,-3.128429943E-1,5.801277921E-1
1.483698221E1,3.081354010E-1,-5.144662459E-1,-2.701910645E-1,6.577432287E-1
1.484701421E1,2.673306066E-1,-6.681908610E-1,-2.813545686E-1,7.727257426E-1
1.485704621E1,2.814662504E-1,-7.961489895E-1,-3.218851286E-1,9.037070873E-1
1.486707821E1,3.913167214E-1,-8.923320325E-1,-3.935930425E-1,1.050857134E0
1.487711021E1,5.027272296E-1,-9.139869033E-1,-4.666879159E-1,1.142761715E0
1.488714221E1,6.304994166E-1,-8.946051376E-1,-4.504694939E-1,1.183541563E0
1.489717521E1,7.792262703E-1,-8.627876598E-1,-3.607170725E-1,1.217256313E0
1.490720721E1,8.923500127E-1,-8.443649836E-1,-1.917541748E-1,1.243386679E0
1.491723921E1,9.623324132E-1,-8.614370991E-1,-2.490563035E-2,1.291811844E0
1.492727121E1,1.018418321E0,-8.498064025E-1,1.195708823E-1,1.331782262E0
1.493730321E1,1.109663537E0,-7.787925531E-1,2.336933291E-1,1.375675680E0
1.494733521E1,1.191017017E0,-6.839182632E-1,2.801377630E-1,1.401692867E0
1.495736721E1,1.244284567E0,-5.968143381E-1,2.992891484E-1,1.412092572E0
1.496739921E1,1.242057948E0,-5.656770377E-1,2.964474016E-1,1.396631490E0
1.497743121E1,1.193842392E0,-5.848899651E-1,2.869562012E-1,1.360036687E0
1.498746421E1,1.123762928E0,-6.508141056E-1,2.713242549E-1,1.326657065E0
1.499749621E1,1.104909166E0,-6.900730424E-1,2.196179116E-1,1.321081790E0
1.500752821E1,1.064547590E0,-6.720317508E-1,1.585799968E-1,1.268871885E0
1.501756021E1,1.016340221E0,-6.573314121E-1,1.705287820E-1,1.222338781E0
1.502759221E1,1.010773087E0,-6.620277496E-1,1.663924617E-1,1.219684150E0
1.503762421E1,9.975952166E-1,-6.278738706E-1,9.435359538E-2,1.182507681E0
1.504765621E1,9.876496875E-1,-5.940142527E-1,2.539562702E-2,1.152800840E0
1.505768821E1,9.132584864E-1,-5.875408003E-1,-3.581536531E-2,1.086521051E0
1.506772121E1,7.026411939E-1,-5.760874204E-1,-1.377715105E-1,9.190007358E-1
1.507775321E1,3.719250154E-1,-5.325300492E-1,-2.496188056E-1,6.958635057E-1
1.508778521E1,-1.654703557E-2,-5.602528681E-1,-6.485602963E-1,8.571974910E-1
1.509781721E1,-4.743886989E-1,-7.853994682E-1,-1.062504573E0,1.403856449E0
1.510784921E1,-8.950999582E-1,-9.598341903E-1,-1.203134202E0,1.780454301E0
1.511788121E1,-1.191467838E0,-1.025408814E0,-1.301326495E0,2.040712985E0
1.512791321E1,-1.364388716E0,-1.091071583E0,-1.563639021E0,2.344559821E0
1.513794521E1,-1.575103072E0,-1.168722169E0,-1.666414361E0,2.573674031E0
1.514797821E1,-1.632008759E0,-1.130747134E0,-1.541498539E0,2.513614811E0
1.515801021E1,-1.512927289E0,-9.501732744E-1,-1.456529140E0,2.305049971E0
1.516804221E1,-1.346949980E0,-6.755166914E-1,-1.422787782E0,2.072419388E0
1.517807421E1,-1.159739676E0,-3.927701931E-1,-1.401920823E0,1.861356101E0
1.518810558E1,-1.096364045E0,-1.057562506E-1,-1.485240723E0,1.849091265E0
1.519813758E1,-1.099152582E0,1.220194039E-1,-1.679565334E0,2.010961174E0
1.520816958E1,-1.163841498E0,2.241288923E-1,-1.870375183E0,2.214286368E0
1.521820158E1,-1.311680160E0,2.962678921E-1,-1.906855962E0,2.333319345E0
1.522823358E1,-1.484454857E0,3.613930106E-1,-1.648158184E0,2.247362127E0
1.523826658E1,-1.571659062E0,2.821060820E-1,-1.073207316E0,1.923920475E0
1.524829858E1,-1.635351028E0,9.575663477E-2,-3.692329574E-1,1.679248431E0
1.525833058E1,-1.330535676E0,1.647511482E-2,2.280630451E-1,1.350040506E0
1.526836258E1,-6.613458180E-1,1.111831976E-1,6.226208782E-1,9.150938490E-1
1.527839458E1,7.912978470E-2,2.366948511E-1,7.899015319E-1,8.283902495E-1
1.528842658E1,8.990409815E-1,4.452008602E-1,6.501191640E-1,1.195463684E0
1.529845858E1,1.753592838E0,6.150107270E-1,2.595754445E-1,1.876354297E0
1.530849058E1,1.930473450E0,7.432892829E-1,3.680442184E-1,2.101110004E0
1.531852258E1,1.247644377E0,5.801278464E-1,9.986336821E-1,1.700127655E0
1.532855558E1,5.458785117E-1,1.489506559E-1,1.320567927E0,1.436686917E0
1.533858758E1,8.038167357E-3,-8.869904548E-2,1.438016855E0,1.440772226E0
1.534861958E1,-2.522208166E-1,-1.764695531E-1,1.458543506E0,1.490673003E0
1.535865158E1,-3.444401783E-1,-1.578274602E-1,1.330997021E0,1.383871964E0
1.536868358E1,-4.658049864E-1,-1.891574264E-2,1.069984916E0,1.167133159E0
1.537871558E1,-6.497057658E-1,1.090534955E-1,7.256891638E-1,9.801198955E-1
1.538874758E1,-7.570507050E-1,2.092544527E-1,4.036596090E-1,8.830935827E-1
1.539877958E1,-7.352476072E-1,2.549823104E-1,1.859326869E-1,8.001099841E-1
1.540881258E1,-6.166882932E-1,1.939150134E-1,9.461145759E-2,6.533443283E-1
1.541884458E1,-4.100283962E-1,5.451081410E-2,2.030164969E-1,4.607715406E-1
1.542887658E1,-1.689933032E-1,-7.687743723E-2,3.787960786E-1,4.218475388E-1
1.543890858E1,3.301337957E-2,-1.830191655E-1,4.587345332E-1,4.949982527E-1
1.544894058E1,1.709801871E-1,-2.626526879E-1,4.103856611E-1,5.163691022E-1
1.545897258E1,2.655887210E-1,-3.266324830E-1,3.408540809E-1,5.416711661E-1
1.546900458E1,3.709847832E-1,-3.267440186E-1,2.345604712E-1,5.471836782E-1
1.547903658E1,5.516824579E-1,-2.987462345E-1,1.890621167E-1,6.552460080E-1
1.548906858E1,7.308089858E-1,-3.064932105E-1,2.156301105E-1,8.212893561E-1
1.549910158E1,8.408208400E-1,-3.265336651E-1,3.086499560E-1,9.533460624E-1
1.550913358E1,8.900742763E-1,-3.949943277E-1,3.886772883E-1,1.048485942E0
1.551916558E1,8.794855535E-1,-4.498859417E-1,4.380406523E-1,1.080634912E0
1.552919758E1,8.497179633E-1,-5.050889200E-1,5.240689820E-1,1.118831414E0
1.553922958E1,8.975323999E-1,-5.768371797E-1,6.954292381E-1,1.273549122E0
1.554926158E1,1.018207821E0,-6.133661976E-1,8.954683328E-1,1.488230088E0
1.555929358E1,1.202141930E0,-5.611841834E-1,1.000503037E0,1.661649552E0
1.556932558E1,1.413955563E0,-4.220458862E-1,8.609235674E-1,1.708385920E0
1.557935858E1,1.498918530E0,-3.057719564E-1,6.809246349E-1,1.674488461E0
1.558939058E1,1.450407690E0,-2.364394739E-1,5.879895741E-1,1.582819582E0
1.559942258E1,1.255725814E0,-1.733880705E-1,5.532284617E-1,1.383102481E0
1.560945458E1,1.073313151E0,-8.073367596E-2,4.972296774E-1,1.185645984E0
1.561948658E1,1.005577835E0,-1.359974653E-2,3.923335522E-1,1.079489394E0
1.562951858E1,9.465344059E-1,5.223727047E-2,3.803578699E-1,1.021434395E0
1.563955058E1,7.987039304E-1,1.498878184E-1,3.986994159E-1,9.051826063E-1
1.564958258E1,6.271665037E-1,2.425971767E-1,3.983474135E-1,7.815829293E-1
1.565961458E1,4.328377998E-1,3.252192110E-1,3.648095387E-1,6.528415548E-1
1.566964758E1,2.656454390E-1,4.150578788E-1,3.995589566E-1,6.344193423E-1
1.567967958E1,5.294419885E-2,5.083040115E-1,3.598961234E-1,6.250610178E-1
1.568971158E1,-2.755453598E-1,6.002783749E-1,1.934124452E-1,6.882352407E-1
1.569974358E1,-5.711238652E-1,6.515982172E-1,-1.069876742E-1,8.730458571E-1
1.570977558E1,-6.514201695E-1,7.051122272E-1,-3.283135575E-1,1.014554721E0
1.571980758E1,-5.761109555E-1,7.757957089E-1,-3.937959409E-1,1.043474033E0
1.572983958E1,-6.705575216E-1,7.864850038E-1,-4.233974701E-1,1.116902623E0
1.573987158E1,-9.546959496E-1,6.810216987E-1,-5.519017285E-1,1.296082724E0
1.574990458E1,-1.302249185E0,5.310292152E-1,-7.228883475E-1,1.581269279E0
1.575993658E1,-1.592480997E0,4.847175130E-1,-9.873544031E-1,1.935410941E0
1.576996858E1,-1.724294779E0,5.287727746E-1,-1.308421506E0,2.228174134E0
1.578000058E1,-1.648534160E0,6.238984948E-1,-1.355158301E0,2.223368667E0
1.579003258E1,-1.310814187E0,6.805372569E-1,-1.207851736E0,1.907949320E0
1.580006458E1,-1.070831008E0,6.675204778E-1,-1.142763455E0,1.702401524E0
1.581009658E1,-9.971601838E-1,8.192981163E-1,-1.243857136E0,1.792416918E0
1.582012858E1,-1.193331930E0,8.533733502E-1,-1.386687657E0,2.018709942E0
1.583016058E1,-1.443764083E0,7.606566828E-1,-1.604756641E0,2.288732661E0
1.584019358E1,-1.587389241E0,6.522019422E-1,-1.874365323E0,2.541341642E0
1.585022558E1,-1.410995117E0,5.479987121E-1,-1.771221609E0,2.329900383E0
1.586025758E1,-8.169858348E-1,4.305641100E-1,-1.261528591E0,1.563427546E0
1.587028958E1,1.129167509E-1,3.523286569E-1,-6.943586129E-1,7.867779600E-1
1.588032158E1,1.029059084E0,4.743647254E-1,-4.054044181E-1,1.203468834E0
1.589035358E1,1.863418751E0,8.602505529E-1,-3.389911580E-1,2.080210436E0
1.590038558E1,2.745236759E0,1.275698733E0,-3.965026170E-1,3.053022510E0
1.591041758E1,3.414102096E0,1.428568047E0,-5.124189895E-1,3.736237815E0
1.592044958E1,3.337728689E0,1.220643397E0,-3.413709748E-1,3.570285317E0
1.593048258E1,2.702205344E0,8.310445878E-1,-1.482970834E-1,2.830996442E0
1.594051458E1,2.030780681E0,4.439209047E-1,-6.802299857E-2,2.079846887E0
1.595054658E1,1.707421469E0,1.668587771E-1,8.105644226E-2,1.717469089E0
1.596057858E1,1.656772887E0,3.289497346E-2,3.630126894E-1,1.696395205E0
1.597061058E1,1.804846607E0,3.353290468E-2,6.057458138E-1,1.904080807E0
1.598064258E1,1.837806192E0,1.933098266E-1,6.411121130E-1,1.955997196E0
1.599067458E1,1.816629916E0,4.499423674E-1,4.743886989E-1,1.930708943E0
1.600070658E1,1.709866775E0,6.484682027E-1,2.473307902E-1,1.845353060E0
1.601073858E1,1.475222688E0,8.054960561E-1,-4.667306006E-2,1.681453018E0
1.602077158E1,1.161836488E0,8.820364013E-1,-3.547195834E-1,1.501225573E0
1.603080358E1,9.165411133E-1,8.879172385E-1,-5.579652911E-1,1.392756224E0
1.604083558E1,7.280736583E-1,8.294675937E-1,-5.927872145E-1,1.252798636E0
1.605086758E1,6.756603867E-1,7.257493901E-1,-5.424111128E-1,1.130238449E0
1.606089958E1,6.298971534E-1,5.755975699E-1,-4.766322756E-1,9.773747042E-1
1.607093158E1,5.138568199E-1,4.129458645E-1,-5.246724147E-1,8.425284927E-1
1.608096358E1,3.965897405E-1,2.318543798E-1,-7.102647936E-1,8.458817605E-1
1.609099558E1,2.959521425E-1,2.295382977E-2,-8.981492811E-1,9.459316467E-1
1.610102858E1,1.994637287E-1,-2.494404656E-1,-1.031059417E0,1.079393276E0
1.611106058E1,1.248029709E-1,-5.420623264E-1,-9.913538986E-1,1.136745310E0
1.612109258E1,1.144376117E-1,-8.181435835E-1,-8.624584615E-1,1.194273624E0
1.613112458E1,1.752872461E-1,-1.060449569E0,-6.911420596E-1,1.277871767E0
1.614115658E1,2.664418298E-1,-1.248477021E0,-5.230135596E-1,1.379575769E0
1.615118858E1,3.224464613E-1,-1.332847665E0,-3.599224359E-1,1.417744257E0
1.616122058E1,4.049951130E-1,-1.341163283E0,-1.987100226E-1,1.415000235E0
1.617125258E1,5.483431131E-1,-1.318492166E0,-9.350107133E-2,1.431029074E0
1.618128512E1,7.340518516E-1,-1.251723980E0,-3.949501812E-2,1.451621472E0
1.619131812E1,8.887586528E-1,-1.102642200E0,-5.464281499E-2,1.417285293E0
1.620135013E1,9.479055780E-1,-1.001640905E0,-1.051861471E-1,1.383066742E0
1.621138213E1,9.553982002E-1,-9.557060561E-1,-9.044590116E-2,1.354378177E0
1.622141412E1,9.867878079E-1,-9.311202684E-1,5.167184472E-3,1.356746783E0
1.623144612E1,1.062104623E0,-8.811069864E-1,1.082056493E-1,1.384241386E0
1.624147812E1,1.139587832E0,-8.327224463E-1,2.854265696E-1,1.439984523E0
1.625151013E1,1.184317278E0,-8.027060571E-1,4.453221899E-1,1.498417926E0
1.626154213E1,1.225794502E0,-8.116023034E-1,5.556737673E-1,1.571637298E0
1.627157512E1,1.191244474E0,-8.443122125E-1,5.668004340E-1,1.566266019E0
