"Time (s)","Linear Acceleration x (m/s^2)","Linear Acceleration y (m/s^2)","Linear Acceleration z (m/s^2)","Absolute acceleration (m/s^2)"
9.117915761E-4,5.088059950E-1,4.131923246E-1,3.537249720E-1,7.448038624E-1
1.094379160E-2,4.019820428E-1,6.103142434E-1,1.263302636E-1,7.416416749E-1
2.097579162E-2,4.699550477E-1,2.746138984E-1,-2.908334899E-1,6.171342308E-1
3.100779164E-2,1.749919617E-1,-2.334220183E-1,-8.765537596E-1,9.238260219E-1
4.103879165E-2,1.409953728E-1,-3.576730120E-1,-1.297639825E0,1.353395284E0
5.107079167E-2,4.176996508E-1,-1.290983355E-1,-1.247045038E0,1.321461579E0
6.110279157E-2,5.274621212E-1,1.515282547E-1,-6.973985803E-1,8.874355645E-1
7.113479159E-2,2.561589164E-1,3.700375342E-1,-1.295748836E-1,4.683319524E-1
8.116679161E-2,1.822547883E-1,2.804470807E-1,1.063550055E-1,3.509683179E-1
9.119879163E-2,1.093940958E-1,-5.326813459E-4,2.432447559E-1,2.667121355E-1
1.012307917E-1,-1.110593829E-1,-5.693433881E-2,1.382217461E-1,1.862282378E-1
1.112617917E-1,-1.286861068E-1,3.157496452E-2,-2.497720027E-1,2.827421896E-1
1.212937916E-1,2.456356823E-2,7.092672586E-2,-6.335072243E-1,6.379383768E-1
1.313257916E-1,1.906815031E-1,3.421030462E-2,-8.186745107E-1,8.412833857E-1
1.413577916E-1,2.594769189E-1,8.152246535E-2,-8.079325908E-1,8.524841671E-1
1.513897916E-1,3.098705623E-1,2.003817415E-1,-7.199594772E-1,8.090205538E-1
1.614217917E-1,4.577852377E-1,2.574920815E-1,-6.335580951E-1,8.229613331E-1
1.714537916E-1,4.342364538E-1,1.484730846E-1,-5.851718009E-1,7.436609383E-1
1.814847916E-1,4.406341848E-1,3.689300716E-2,-6.453595304E-1,7.823097228E-1
1.915167916E-1,4.942072517E-1,2.370753586E-2,-6.263671893E-1,7.982096909E-1
2.015487916E-1,5.413998368E-1,1.222185016E-1,-5.329596734E-1,7.694784980E-1
2.115807916E-1,5.520636964E-1,1.872524035E-1,-5.389928305E-1,7.939465088E-1
2.216127916E-1,5.009976232E-1,1.897444868E-1,-5.655631632E-1,7.790143004E-1
2.316447917E-1,4.331149578E-1,1.552412367E-1,-6.551711583E-1,8.005858198E-1
2.416767916E-1,3.922174850E-1,1.970628619E-1,-8.222559303E-1,9.320800084E-1
2.517077916E-1,4.219874141E-1,2.908831912E-1,-9.226801050E-1,1.055473820E0
2.617397916E-1,5.127400017E-1,3.952314323E-1,-9.800389516E-1,1.174558019E0
2.717717916E-1,5.067106453E-1,4.503484565E-1,-1.029920379E0,1.233006649E0
2.818037916E-1,5.136901742E-1,4.745325404E-1,-1.069555146E0,1.277891598E0
2.918357917E-1,6.663001639E-1,4.970320415E-1,-1.078269251E0,1.361492320E0
3.018677916E-1,7.634610075E-1,4.929343128E-1,-1.014515305E0,1.362019915E0
3.118997916E-1,6.847247404E-1,4.695518821E-1,-8.603411847E-1,1.195622806E0
3.219307916E-1,4.650223365E-1,4.564874482E-1,-6.612066543E-1,9.283430420E-1
3.319627916E-1,-6.507161647E-2,7.370201907E-1,-2.795442706E-1,7.909349379E-1
3.419944999E-1,5.017758876E-1,5.555457133E-1,-4.759879124E-1,8.871158739E-1
3.520264999E-1,1.117885014E0,6.097669441E-1,-1.742393081E0,2.158104789E0
3.620584999E-1,6.740847082E-1,4.918414682E-1,-1.000384338E0,1.302715260E0
3.720905000E-1,7.690385203E-1,4.139466155E-1,-2.546848333E-1,9.097452448E-1
3.821225000E-1,8.342612873E-1,1.434865791E-1,-5.132025164E-1,9.899278341E-1
3.921535000E-1,6.485069405E-1,9.331922293E-2,-1.813490546E-1,6.798214536E-1
4.021854999E-1,5.393338694E-1,2.878291905E-1,2.254335523E-1,6.515726759E-1
4.122174999E-1,4.648083284E-1,3.366335607E-1,3.086721754E-1,6.516497896E-1
4.222494999E-1,3.444124040E-1,1.294190553E-1,5.183381259E-2,3.715587975E-1
4.322815000E-1,1.199860346E-1,-8.360144287E-2,-4.679690409E-1,4.902865213E-1
4.423135000E-1,1.062497556E-1,-8.196977735E-2,-8.416979223E-1,8.523282510E-1
4.523455000E-1,3.737774134E-1,1.445554501E-1,-1.048062535E0,1.122069922E0
4.623764999E-1,6.262543380E-1,4.319884917E-1,-1.021814969E0,1.273936569E0
4.724084999E-1,7.316292040E-1,5.829255930E-1,-8.957712185E-1,1.295179376E0
4.824404999E-1,7.436728603E-1,6.107095152E-1,-8.518609679E-1,1.285178020E0
4.924725000E-1,7.039460000E-1,5.658487996E-1,-6.762351680E-1,1.128281364E0
5.025045000E-1,7.067693281E-1,4.830805850E-1,-5.353845137E-1,1.009715956E0
5.125365000E-1,6.322222987E-1,3.690680659E-1,-4.286851072E-1,8.483437943E-1
5.225684999E-1,6.045929622E-1,4.010128668E-1,-2.660962594E-1,7.727555814E-1
5.325994999E-1,5.721973410E-1,5.233114752E-1,-4.535392821E-2,7.767378424E-1
5.426314999E-1,4.970123803E-1,6.442652240E-1,1.903695542E-1,8.356671300E-1
5.526635000E-1,3.955478398E-1,7.470347169E-1,3.167664760E-1,9.026959411E-1
5.626955000E-1,2.898909918E-1,8.261683023E-1,4.222566783E-1,9.720553242E-1
5.727275000E-1,2.616930867E-1,8.727472222E-1,4.388300264E-1,1.011307459E0
5.827594999E-1,3.010271602E-1,8.946196094E-1,4.604962993E-1,1.050246846E0
5.927914999E-1,3.723609985E-1,8.756763849E-1,4.838261050E-1,1.067496859E0
6.028224999E-1,4.005072288E-1,7.429103833E-1,5.181211942E-1,9.903390581E-1
6.128545000E-1,3.442239044E-1,4.464197123E-1,6.155796611E-1,8.346969361E-1
6.228865000E-1,2.910889401E-1,1.669380069E-3,5.657982212E-1,6.362886020E-1
6.329185000E-1,2.873943769E-1,-3.854888016E-1,3.683289778E-1,6.056924797E-1
6.429504999E-1,3.682434623E-1,-4.253942943E-1,4.432949603E-2,5.643834311E-1
6.529824999E-1,4.431071915E-1,-1.979209408E-1,-1.167747438E-1,4.991523042E-1
6.630144999E-1,4.813689588E-1,5.184346050E-2,-5.849554539E-2,4.876736078E-1
6.730465000E-1,4.845403058E-1,1.255367965E-1,1.938544947E-1,5.367665790E-1
6.830775000E-1,4.080121301E-1,-7.699438155E-2,5.626489109E-1,6.992680674E-1
6.931095000E-1,5.258271301E-2,-7.032320550E-1,5.430683398E-1,8.900693718E-1
7.031414999E-1,-5.440230440E-1,-7.979054931E-1,8.752825749E-1,1.303354838E0
7.131734999E-1,-1.116814608E0,-2.247301322E-1,9.008039171E-1,1.452317527E0
7.232054999E-1,-1.808717171E0,5.491441816E-2,-1.547746289E-1,1.816157643E0
7.332375000E-1,2.345789447E-1,-1.807695955E-2,-1.060027692E0,1.085823543E0
7.432695000E-1,1.336730216E0,2.507195440E-1,-1.134703068E0,1.771230932E0
7.533005000E-1,5.573068581E-1,2.287734818E-1,-1.654645085E0,1.760902779E0
7.633324999E-1,2.439007038E-1,2.106134918E-1,-1.395763705E0,1.432481036E0
7.733644999E-1,1.566766185E-1,1.456716835E-2,-1.519615334E-1,2.187511664E-1
7.833964999E-1,9.630669331E-2,-2.486604470E-1,6.348111534E-1,6.885435335E-1
7.934285000E-1,3.803839265E-1,-2.126030070E-1,9.610776007E-1,1.055254531E0
8.034605000E-1,6.165229632E-1,-1.111965001E-2,9.760330242E-1,1.154497586E0
8.134925000E-1,5.216552514E-1,5.526846707E-2,8.650136948E-1,1.011645935E0
8.235235000E-1,7.804116106E-2,6.388799384E-2,7.192086947E-1,7.262459949E-1
8.335554999E-1,-3.531957990E-1,1.036663096E-1,4.150587559E-1,5.547681921E-1
8.435874999E-1,-4.870705788E-1,2.983046235E-1,5.169102359E-1,7.703373216E-1
8.536194999E-1,-6.059889849E-1,5.538503131E-1,9.050203443E-1,1.221897967E0
8.636515000E-1,-6.865527262E-1,7.080675562E-1,1.033823980E0,1.428812910E0
8.736835000E-1,-6.349923440E-1,8.365415552E-1,1.077612609E0,1.504747814E0
8.837154999E-1,-4.796192526E-1,8.799217558E-1,1.119525450E0,1.502542564E0
8.937464999E-1,-3.109422472E-1,7.957718441E-1,1.114911997E0,1.404623320E0
9.037784999E-1,-1.944920970E-1,6.469293617E-1,1.034328010E0,1.235386258E0
9.138104999E-1,-1.897901682E-1,5.096678746E-1,6.805369645E-1,8.711556752E-1
9.238425000E-1,-1.535002648E-1,3.358167046E-1,3.652474952E-1,5.193658856E-1
9.338745000E-1,-1.430461010E-1,2.054717427E-1,1.866600806E-1,3.122864226E-1
9.439064999E-1,-1.636448916E-1,2.000458190E-1,7.732241035E-2,2.697716356E-1
9.539384999E-1,-1.944231364E-1,3.129922445E-1,2.774211466E-2,3.695052449E-1
9.639694999E-1,-2.372276786E-1,4.036474760E-1,3.131300926E-2,4.692427526E-1
9.740014999E-1,-2.928871417E-1,4.997812562E-1,3.090545833E-2,5.801028608E-1
9.840335000E-1,-2.399888069E-1,6.860201910E-1,8.191188991E-2,7.313876453E-1
9.940655000E-1,-3.588583888E-1,6.268278037E-1,3.579460770E-1,8.061127916E-1
1.004097500E0,-4.526548907E-1,4.573364639E-1,3.635050249E-1,7.390460029E-1
1.014129500E0,-4.700715534E-1,3.475057273E-1,-3.526923537E-2,5.856376139E-1
1.024161500E0,-4.914237577E-1,4.128183952E-1,-3.520684558E-1,7.320304192E-1
1.034193500E0,-2.471912610E-1,5.265389921E-1,-5.017489904E-1,7.681789369E-1
1.044224500E0,1.457486475E-1,7.110741945E-1,-4.930652905E-1,8.774865007E-1
1.054256500E0,6.139879028E-1,8.522572629E-1,-4.725602746E-1,1.151797204E0
1.064288500E0,1.217577994E0,1.008869525E0,-3.366551954E-1,1.616678884E0
1.074320500E0,1.691654452E0,1.192025077E0,-3.805028808E-1,2.104139019E0
1.084352500E0,2.229819317E0,1.462874246E0,-7.372438467E-1,2.766879783E0
1.094384500E0,1.119985188E0,1.376016927E0,-1.624452987E0,2.405542956E0
1.104416500E0,-2.020152343E0,4.815227406E-1,-2.772248556E0,3.463847816E0
1.114447500E0,-2.370904152E-1,4.370343465E-1,-2.833125672E0,2.876423467E0
1.124479500E0,-1.452558003E-1,-4.531445950E-2,-2.226955935E0,2.232148155E0
1.134511500E0,-1.513844132E0,-8.191075701E-1,-6.699359626E-1,1.847017992E0
1.144543500E0,-2.157033761E0,-1.232288858E0,8.204848087E-1,2.616204464E0
1.154575500E0,-1.994136034E0,-9.938305599E-1,6.645688033E-1,2.325065461E0
1.164607500E0,-1.467763980E0,-7.591874237E-1,3.752064729E-1,1.694543166E0
1.174639500E0,-1.154981504E0,-4.275866347E-1,3.807163042E-1,1.289091738E0
1.184670500E0,-8.281921698E-1,-1.482810035E-2,4.488474762E-1,9.421179330E-1
1.194702500E0,-3.534102456E-1,4.016404192E-1,6.209649467E-1,8.196409538E-1
1.204734500E0,4.939960210E-1,6.361608370E-1,1.396062498E0,1.611745382E0
1.214766500E0,8.494063067E-1,1.074531491E0,1.526253678E0,2.050746033E0
1.224798500E0,4.590271863E-1,1.153032116E0,1.417503653E0,1.884013170E0
1.234830500E0,6.230431934E-1,7.222592602E-1,1.902021484E0,2.127798624E0
1.244862500E0,2.692258354E-1,3.885141144E-1,1.763814356E0,1.826052258E0
1.254893500E0,1.693670864E-1,1.232876284E-1,1.558781154E0,1.572794880E0
1.264925500E0,1.467905483E-1,-1.416635269E-1,1.185284992E0,1.202712157E0
1.274957500E0,1.411508357E-1,-2.651162112E-1,6.805597687E-1,7.438896172E-1
1.284989500E0,2.084106264E-1,-1.685678817E-1,1.771314579E-1,3.212875244E-1
1.295021500E0,3.481705557E-1,-1.207744220E-2,-1.167396605E-1,3.674190371E-1
1.305053500E0,4.585468376E-1,1.305277970E-1,-3.475093818E-1,5.899707437E-1
1.315085500E0,5.371634560E-1,2.153224739E-1,-5.325901294E-1,7.864862314E-1
1.325117500E0,5.369513483E-1,3.445713021E-1,-7.845542532E-1,1.011222779E0
1.335148500E0,5.366475123E-1,4.494656731E-1,-1.104911504E0,1.307990587E0
1.345180792E0,4.535197670E-1,5.504891874E-1,-1.501418214E0,1.662219955E0
1.355212792E0,2.876196409E-1,6.904680949E-1,-1.817044483E0,1.964973766E0
1.365244792E0,1.471613348E-1,8.410419378E-1,-1.894424196E0,2.077943944E0
1.375276792E0,6.605884574E-2,8.572837488E-1,-1.680155903E0,1.887385243E0
1.385308792E0,9.269839481E-2,7.251320703E-1,-1.312840832E0,1.502651178E0
1.395340792E0,1.850964620E-1,6.723347828E-1,-1.027002618E0,1.241381947E0
1.405371792E0,2.658955537E-1,6.776428851E-1,-7.817844272E-1,1.068216839E0
1.415403792E0,3.369248251E-1,6.952672702E-1,-4.472622961E-1,8.927253084E-1
1.425435792E0,3.408890546E-1,7.053689931E-1,-1.859800494E-1,8.051952202E-1
1.435467792E0,2.641436913E-1,7.329775719E-1,-5.777458370E-2,7.812591844E-1
1.445499792E0,2.212208892E-1,8.112687197E-1,-1.284574807E-2,8.409878897E-1
1.455531792E0,2.077172197E-1,8.340503490E-1,-9.992950022E-2,8.653163197E-1
1.465563792E0,1.722235426E-1,8.887368719E-1,-2.724217772E-1,9.453717792E-1
1.475595792E0,1.134356365E-1,9.315807366E-1,-3.639991146E-1,1.006581178E0
1.485626792E0,3.515188906E-2,9.877885589E-1,-3.946624982E-1,1.064293371E0
1.495658792E0,4.581174692E-2,1.063788110E0,-3.493582714E-1,1.120622622E0
1.505690792E0,4.978913264E-2,1.150154628E0,-2.933518857E-1,1.188019341E0
1.515722792E0,4.779288408E-2,1.263750241E0,-1.549173009E-1,1.274106825E0
1.525754792E0,-9.355828268E-3,1.357219737E0,6.565838456E-3,1.357267864E0
1.535786792E0,-1.396256534E-1,1.378250417E0,1.228780675E-1,1.390743886E0
1.545818792E0,-3.003510394E-1,1.363662784E0,2.125305015E-1,1.412429166E0
1.555849792E0,-4.196407437E-1,1.312035963E0,2.962298852E-1,1.409002791E0
1.565881792E0,-4.753392735E-1,1.241861920E0,3.389730316E-1,1.372250403E0
1.575913792E0,-4.451103014E-1,1.130556954E0,3.329609245E-1,1.259819504E0
1.585945792E0,-3.879997787E-1,1.045578492E0,3.531741643E-1,1.169833407E0
1.595977792E0,-3.266103732E-1,9.354862382E-1,4.198002630E-1,1.076123180E0
1.606009792E0,-3.299719010E-1,8.157430092E-1,5.413024807E-1,1.033114944E0
1.616041792E0,-3.741100468E-1,6.355734842E-1,7.540458208E-1,1.054749772E0
1.626072792E0,-4.857899655E-1,3.867564780E-1,1.021235510E0,1.195196398E0
1.636104792E0,-5.445746191E-1,1.685098846E-1,1.377660141E0,1.490940831E0
1.646136792E0,-4.605968714E-1,1.433189102E-2,1.766514600E0,1.825631045E0
1.656168792E0,-3.177284161E-1,-9.808463059E-2,2.068982880E0,2.095533845E0
1.666200792E0,-1.589219128E-1,-2.130572625E-1,2.291178244E0,2.306544454E0
1.676232792E0,7.867604077E-2,-3.815765758E-1,2.455899571E0,2.486610807E0
1.686264792E0,2.951893732E-1,-5.728918440E-1,2.418472713E0,2.502868773E0
1.696296792E0,5.039304404E-1,-8.044121285E-1,2.239288883E0,2.432167647E0
1.706327792E0,7.165895075E-1,-1.010058118E0,1.865684547E0,2.239307204E0
1.716359792E0,8.029524442E-1,-1.234090824E0,1.451595844E0,2.067569414E0
1.726391792E0,8.988279236E-1,-1.355484722E0,1.002793976E0,1.910713538E0
1.736423792E0,9.797436672E-1,-1.347152293E0,5.434782296E-1,1.752165957E0
1.746455792E0,9.646511266E-1,-1.245862585E0,6.854573965E-2,1.577156902E0
1.756487792E0,8.891833068E-1,-1.108715849E0,-3.772617692E-1,1.470450349E0
1.766519792E0,8.861265287E-1,-9.394686306E-1,-6.922939610E-1,1.465296032E0
1.776550792E0,8.329977040E-1,-7.612431586E-1,-9.836846906E-1,1.497000966E0
1.786582792E0,6.988875007E-1,-5.752289030E-1,-1.135523432E0,1.452152022E0
1.796614792E0,4.881924402E-1,-4.335014588E-1,-1.127645479E0,1.303011780E0
1.806646792E0,2.659740891E-1,-3.435706973E-1,-9.570003372E-1,1.051015074E0
1.816678792E0,1.380368462E-1,-2.715302230E-1,-7.382577538E-1,7.986284142E-1
1.826710792E0,7.547719354E-2,-2.275806499E-1,-4.793892378E-1,5.360072763E-1
1.836742792E0,5.224898318E-2,-1.666264965E-1,-2.731070709E-1,3.241632579E-1
1.846774792E0,2.488964187E-2,-1.665010737E-1,-5.523689210E-2,1.771813084E-1
1.856805792E0,-1.471899496E-2,-1.874621724E-1,1.314635342E-1,2.294370844E-1
1.866837792E0,-6.435750699E-2,-2.788981533E-1,2.743823487E-1,3.964993592E-1
1.876869792E0,-1.206409228E-1,-3.978597558E-1,3.274107474E-1,5.291922288E-1
1.886901792E0,-1.958873340E-1,-5.193574418E-1,3.053778541E-1,6.335295051E-1
1.896933792E0,-2.890191537E-1,-6.169784613E-1,2.365397537E-1,7.212111674E-1
1.906965792E0,-4.459971048E-1,-6.802128826E-1,1.728191364E-1,8.315464130E-1
1.916997792E0,-6.239460035E-1,-6.968277459E-1,2.326577872E-1,9.638501796E-1
1.927028792E0,-7.379800842E-1,-7.212799247E-1,3.249420530E-1,1.081871837E0
1.937060792E0,-7.027658127E-1,-6.094270746E-1,2.022247839E-1,9.519327760E-1
1.947092792E0,-6.245172764E-1,-4.055016281E-1,9.063885927E-2,7.501125261E-1
1.957124792E0,-6.280038249E-1,-2.325165769E-1,7.044433057E-2,6.733610966E-1
1.967156792E0,-6.758355108E-1,-1.004497562E-1,-5.578302205E-2,6.855330311E-1
1.977188792E0,-7.327569857E-1,-7.109337151E-3,-2.449123818E-1,7.726353717E-1
1.987220792E0,-8.172097101E-1,4.985876933E-2,-5.265084404E-1,9.734108819E-1
1.997251792E0,-8.915135685E-1,1.227396347E-1,-7.865218413E-1,1.195189553E0
2.007283792E0,-9.318302666E-1,1.993358208E-1,-1.000797737E0,1.381896713E0
2.017315792E0,-8.785190088E-1,2.668723311E-1,-1.220565337E0,1.527349414E0
2.027347792E0,-7.861204299E-1,3.352359299E-1,-1.422786028E0,1.659725441E0
2.037379792E0,-6.916056707E-1,3.776642038E-1,-1.566149815E0,1.753218155E0
2.047411792E0,-6.052857111E-1,4.028465536E-1,-1.670121496E0,1.821527367E0
2.057443792E0,-5.082357087E-1,4.118983358E-1,-1.711415117E0,1.832185984E0
2.067475792E0,-4.177360497E-1,4.123001857E-1,-1.688769436E0,1.787858232E0
2.077506792E0,-3.599232399E-1,4.347379987E-1,-1.619358308E0,1.714894515E0
2.087538792E0,-3.310631741E-1,4.537687853E-1,-1.507072472E0,1.608345849E0
2.097570792E0,-2.922366572E-1,4.709189612E-1,-1.372678898E0,1.480342625E0
2.107602792E0,-2.737436500E-1,5.222148299E-1,-1.226957513E0,1.361274643E0
2.117634792E0,-3.353161830E-1,5.726936965E-1,-1.088836924E0,1.275139545E0
2.127666792E0,-4.121590120E-1,5.939587042E-1,-9.945891631E-1,1.229581066E0
2.137698792E0,-4.494848958E-1,5.965354259E-1,-9.088982177E-1,1.176429835E0
2.147730792E0,-4.065323095E-1,5.829688624E-1,-7.807424533E-1,1.055784065E0
2.157761792E0,-4.015544286E-1,5.863356891E-1,-6.403291708E-1,9.565860894E-1
2.167793792E0,-3.348255285E-1,6.172462638E-1,-5.692159188E-1,9.039401788E-1
2.177825792E0,-2.663597130E-1,6.475168607E-1,-5.526028097E-1,8.919615725E-1
2.187857792E0,-2.401390804E-1,6.372416948E-1,-6.328388876E-1,9.296390768E-1
2.197889792E0,-1.546963310E-1,6.371227039E-1,-6.833564919E-1,9.470123493E-1
2.207921792E0,-2.984272689E-3,7.153936788E-1,-6.449408698E-1,9.631955913E-1
2.217953792E0,1.719633050E-1,8.241520362E-1,-5.033920580E-1,9.809187128E-1
2.227984792E0,2.608303848E-1,8.434422930E-1,-2.271222281E-1,9.115985398E-1
2.238016792E0,2.617359906E-1,8.164088608E-1,5.726353705E-2,8.592486657E-1
2.248048792E0,2.880591322E-1,8.106315194E-1,3.396875614E-1,9.249265718E-1
2.258080792E0,3.193734571E-1,8.264122774E-1,6.382481468E-1,1.091932852E0
2.268112792E0,3.812451117E-1,7.684609616E-1,9.315936005E-1,1.266391220E0
2.278144792E0,4.118286078E-1,6.578513758E-1,1.132804477E0,1.373177781E0
2.288176792E0,4.417951494E-1,4.933623290E-1,1.306826386E0,1.465054451E0
2.298207792E0,4.656262077E-1,3.160452220E-1,1.415854154E0,1.523592902E0
2.308239792E0,4.792481737E-1,1.799004069E-1,1.469484816E0,1.556094018E0
2.318271792E0,4.302937128E-1,8.627537459E-2,1.468424715E0,1.532601470E0
2.328303792E0,2.786259106E-1,1.679992765E-2,1.397088684E0,1.424700470E0
2.338335292E0,7.657100659E-2,-4.063990295E-2,1.275458997E0,1.278401492E0
2.348367292E0,-1.306896918E-1,-1.134501632E-1,1.195290747E0,1.207754406E0
2.358399292E0,-2.957336393E-1,-1.472874154E-1,1.224930868E0,1.268703117E0
2.368431292E0,-4.466636874E-1,-2.161274162E-1,1.327827830E0,1.417514112E0
2.378462292E0,-6.378614996E-1,-3.279445982E-1,1.497729206E0,1.660604627E0
2.388494292E0,-8.212850001E-1,-4.800895880E-1,1.704701344E0,1.952178716E0
2.398526292E0,-9.973831089E-1,-6.430970965E-1,1.926732987E0,2.262884651E0
2.408558292E0,-1.079905740E0,-7.684793803E-1,2.077970050E0,2.464693996E0
2.418590292E0,-1.043239386E0,-8.719512700E-1,2.087092876E0,2.490904275E0
2.428622292E0,-9.157550282E-1,-9.590804842E-1,1.924898715E0,2.337451114E0
2.438654292E0,-7.667382257E-1,-1.023994080E0,1.585780672E0,2.037437538E0
2.448685292E0,-6.354140013E-1,-1.099189419E0,1.164489369E0,1.722789547E0
2.458717292E0,-5.038302703E-1,-1.141474582E0,7.682142091E-1,1.465251594E0
2.468749292E0,-4.167543388E-1,-1.099329168E0,4.399784195E-1,1.255304667E0
2.478781292E0,-3.457837588E-1,-1.065502879E0,1.217612493E-1,1.126804595E0
2.488813292E0,-2.750099742E-1,-1.009657292E0,-1.741230655E-1,1.060828532E0
2.498845292E0,-2.703358196E-1,-9.279658417E-1,-4.189886695E-1,1.053448415E0
2.508877292E0,-2.988887238E-1,-8.618186300E-1,-6.488187432E-1,1.119388932E0
2.518909292E0,-3.606520588E-1,-8.135141967E-1,-9.311848801E-1,1.288014183E0
2.528940292E0,-3.605323370E-1,-7.089263660E-1,-1.258710233E0,1.488929686E0
2.538972292E0,-3.812161315E-1,-6.266944872E-1,-1.570265670E0,1.733149155E0
2.549004292E0,-4.501519901E-1,-5.607677154E-1,-1.903314888E0,2.034626454E0
2.559036292E0,-5.714599340E-1,-4.754128388E-1,-2.123980036E0,2.250305538E0
2.569068292E0,-6.824710773E-1,-3.463286828E-1,-2.224532849E0,2.352500101E0
2.579100292E0,-8.874901725E-1,-1.851547149E-1,-2.123209957E0,2.308666628E0
2.589132292E0,-1.130749619E0,-6.928628951E-2,-1.758261840E0,2.091621378E0
2.599164292E0,-1.451803713E0,-7.177062526E-2,-1.283691877E0,1.939265293E0
2.609195292E0,-1.705932768E0,-1.507415119E-1,-8.437543881E-1,1.909149308E0
2.619227292E0,-1.786339292E0,-2.516163607E-1,-4.503952342E-1,1.859347931E0
2.629259292E0,-1.728040213E0,-3.530164357E-1,-8.855023384E-2,1.765951507E0
2.639291292E0,-1.486469808E0,-3.830465658E-1,1.239019150E-1,1.540022352E0
2.649323292E0,-1.162255075E0,-3.217238916E-1,2.164457971E-1,1.225231368E0
2.659355292E0,-9.039201906E-1,-2.164680165E-1,2.214907748E-1,9.555042001E-1
2.669387292E0,-7.211868078E-1,-9.716245160E-2,2.018254191E-1,7.551718039E-1
2.679418292E0,-6.152884698E-1,1.316471368E-2,1.645593596E-1,6.370502284E-1
2.689450292E0,-5.735079943E-1,1.445778157E-1,1.397566402E-1,6.077384987E-1
2.699482292E0,-5.925023089E-1,2.571197601E-1,4.801265717E-2,6.476687212E-1
2.709514292E0,-6.183111148E-1,3.217550281E-1,-1.404086047E-1,7.110200483E-1
2.719546292E0,-6.185044384E-1,3.965594812E-1,-4.055821735E-1,8.392282537E-1
2.729578292E0,-5.921894464E-1,4.641682045E-1,-6.820274198E-1,1.015530336E0
2.739610292E0,-5.457347798E-1,5.526994349E-1,-8.959869808E-1,1.185789098E0
2.749642292E0,-5.250775902E-1,6.141389072E-1,-1.043974162E0,1.320134510E0
2.759673292E0,-5.099747803E-1,6.519310699E-1,-1.129449930E0,1.400266239E0
2.769705292E0,-5.257909870E-1,6.772864974E-1,-1.112999958E0,1.404970486E0
2.779737292E0,-5.064896936E-1,6.800522304E-1,-1.075820437E0,1.369814753E0
2.789769292E0,-4.895366785E-1,6.873809843E-1,-9.995785922E-1,1.308165180E0
2.799801292E0,-4.759113139E-1,6.778254645E-1,-9.403001046E-1,1.253037599E0
2.809833292E0,-4.771951066E-1,6.671290067E-1,-9.243149865E-1,1.235772825E0
2.819865292E0,-4.904420468E-1,6.020908655E-1,-9.736128616E-1,1.245378985E0
2.829896292E0,-4.847056359E-1,5.129420230E-1,-9.985798877E-1,1.222788152E0
2.839928292E0,-4.872121910E-1,4.212987582E-1,-9.880578232E-1,1.179460311E0
2.849960292E0,-5.163496341E-1,3.726820837E-1,-9.496878093E-1,1.143422851E0
2.859992292E0,-5.230226959E-1,3.601886304E-1,-8.760392046E-1,1.082004287E0
2.870024292E0,-4.692609101E-1,3.393121701E-1,-7.090766394E-1,9.154934359E-1
2.880056292E0,-3.894901974E-1,3.326073141E-1,-5.785954374E-1,7.727243490E-1
2.890088292E0,-2.566117467E-1,3.456903130E-1,-5.078160614E-1,6.657541087E-1
2.900120292E0,-8.353364258E-2,3.940122879E-1,-4.532574463E-1,6.063545704E-1
2.910151292E0,4.089393706E-2,4.137961958E-1,-3.635307527E-1,5.523171316E-1
2.920183292E0,1.130393688E-1,3.741377480E-1,-2.911439770E-1,4.873620510E-1
2.930215292E0,2.493275778E-1,3.094248582E-1,-2.582913959E-1,4.739434873E-1
2.940247292E0,4.204690383E-1,2.668329354E-1,-2.497872055E-1,5.571244705E-1
2.950279292E0,6.019637982E-1,2.472752416E-1,-2.709365845E-1,7.049199191E-1
2.960311292E0,7.696274080E-1,2.050598795E-1,-2.478131855E-1,8.341386433E-1
2.970343292E0,9.115660829E-1,1.928249462E-1,-2.036228532E-1,9.537276601E-1
2.980374292E0,1.010565145E0,2.033467915E-1,-7.080042601E-2,1.033249500E0
2.990406292E0,1.098273672E0,2.381732465E-1,7.934145391E-2,1.126599583E0
3.000438292E0,1.146548211E0,3.051901585E-1,2.181894368E-1,1.206366638E0
3.010470292E0,1.110394365E0,3.549595385E-1,3.200678140E-1,1.208890122E0
3.020502292E0,9.286956473E-1,3.281431843E-1,4.462747014E-1,1.081348539E0
3.030534292E0,5.910075413E-1,2.086183488E-1,5.806542420E-1,8.543833321E-1
3.040566292E0,1.697931292E-1,4.204842411E-2,6.794236547E-1,7.015798452E-1
3.050598292E0,-1.007736920E-1,-7.289438702E-2,8.729770178E-1,8.817923804E-1
3.060629292E0,-2.146313513E-1,-8.469984233E-2,1.231325968E0,1.252758684E0
3.070661292E0,-2.215636822E-1,-5.087194562E-2,1.686213033E0,1.701467841E0
3.080693292E0,-1.199006927E-1,-7.664318316E-2,2.193811578E0,2.198422069E0
3.090725292E0,2.020257090E-2,-1.738673229E-1,2.727007479E0,2.732619216E0
3.100757292E0,2.256450936E-1,-3.582873351E-1,3.005063633E0,3.034747595E0
3.110789292E0,4.381635534E-1,-6.870269354E-1,2.938954428E0,3.049827281E0
3.120821292E0,6.084588123E-1,-1.008149441E0,2.589005004E0,2.844210669E0
3.130853292E0,6.480139471E-1,-1.144251279E0,2.095884165E0,2.474260192E0
3.140884292E0,6.167105857E-1,-1.120728515E0,1.598086138E0,2.047008465E0
3.150916292E0,3.793305141E-1,-9.992208157E-1,1.376782474E0,1.742946889E0
3.160948292E0,2.717407776E-1,-6.898198579E-1,1.200052720E0,1.410610158E0
3.170980292E0,5.449480004E-1,-3.605330314E-1,8.103679562E-1,1.040984445E0
3.181012292E0,6.621300028E-1,-3.126878238E-1,6.574743766E-1,9.841048580E-1
3.191044292E0,6.501715697E-1,-4.392442651E-1,4.780841392E-1,9.188161070E-1
3.201076292E0,7.551168846E-1,-5.970188445E-1,9.593526721E-3,9.626655939E-1
3.211108292E0,9.092661537E-1,-7.124865894E-1,-6.250369477E-1,1.313420445E0
3.221139292E0,1.040569840E0,-7.084818314E-1,-1.323089831E0,1.826280044E0
3.231171292E0,1.260250828E0,-5.525042841E-1,-1.936194951E0,2.375361872E0
3.241203292E0,1.381547955E0,-2.828763796E-1,-2.365854204E0,2.754262136E0
3.251235292E0,1.494996364E0,2.635193914E-2,-2.530203064E0,2.938985556E0
3.261267292E0,1.587556179E0,2.863044559E-1,-2.596652577E0,3.056944466E0
3.271299292E0,1.521622976E0,4.911623141E-1,-2.382795342E0,2.869545355E0
3.281331292E0,1.012341164E0,6.536983178E-1,-1.378537808E0,1.830989517E0
3.291362292E0,5.546425743E-1,5.324696767E-1,-4.914192992E-1,9.124939833E-1
3.301394292E0,2.566298913E-1,3.084208913E-1,2.559408152E-1,4.759076047E-1
3.311426292E0,5.989577081E-1,-9.700962000E-2,8.877336359E-1,1.075282387E0
3.321458292E0,1.074253603E0,-5.179665354E-1,1.496052225E0,1.913238718E0
3.331490292E0,1.071500953E0,-5.843154761E-1,1.968464565E0,2.316115630E0
3.341522375E0,9.876666445E-1,-4.556491768E-1,2.082515091E0,2.349461784E0
3.351554375E0,9.611321991E-1,-4.531637447E-1,1.808274829E0,2.097377015E0
3.361586375E0,8.699993963E-1,-4.881478552E-1,1.218010688E0,1.574400621E0
3.371617375E0,7.130227791E-1,-3.734721887E-1,3.522304237E-1,8.786064139E-1
3.381649375E0,6.292744249E-1,-3.357176674E-1,-5.698444945E-1,9.129158789E-1
3.391681375E0,6.814617017E-1,-2.090398599E-1,-1.307148567E0,1.488867050E0
3.401713375E0,5.842607316E-1,3.151707709E-2,-1.839741036E0,1.930544226E0
3.411745375E0,4.383554152E-1,2.356213754E-1,-2.007345625E0,2.068117347E0
3.421777375E0,2.890342285E-1,4.599115046E-1,-1.757251441E0,1.839291169E0
3.431809375E0,2.407238385E-1,6.586910360E-1,-1.491211315E0,1.647887445E0
3.441841375E0,1.030574317E-1,8.372394935E-1,-1.410624404E0,1.643609447E0
3.451872375E0,1.471432085E-1,8.891208878E-1,-1.394677877E0,1.660516022E0
3.461904375E0,4.779743212E-1,9.061559466E-1,-1.300778611E0,1.655778682E0
3.471936375E0,6.870123173E-1,9.116221431E-1,-1.012764648E0,1.526018705E0
3.481968375E0,9.034073167E-1,8.907481679E-1,-7.368590999E-1,1.467153166E0
3.492000375E0,1.134309916E0,8.478047544E-1,-4.680240047E-1,1.491468523E0
3.502032375E0,1.071492620E0,7.271781573E-1,-2.118738592E-1,1.312164258E0
3.512064375E0,8.902431147E-1,5.451434801E-1,-6.701084554E-2,1.046042385E0
3.522096375E0,7.684542373E-1,1.024755460E0,-2.432564503E-1,1.303771210E0
3.532127375E0,1.040791961E0,8.731985541E-1,7.639749777E-1,1.558647294E0
3.542159375E0,1.331214245E0,4.544328828E-1,3.715075243E-1,1.454874033E0
3.552191375E0,5.073692610E-1,-1.398834243E-1,-1.842060041E-1,5.576045116E-1
3.562223375E0,1.626455659E-1,-4.989800414E-1,-5.553428149E-1,7.640944339E-1
3.572255375E0,4.057073770E-1,-2.309825416E-1,-3.996548510E-1,6.145530166E-1
3.582287375E0,8.550252617E-1,3.205906282E-1,-7.963206053E-2,9.166175943E-1
3.592319375E0,1.138956991E0,1.177783672E0,2.739806449E-1,1.661163086E0
3.602350375E0,1.288035481E0,2.048496282E0,9.896470964E-1,2.614340031E0
3.612382375E0,1.155531435E0,2.335892779E0,1.338646349E0,2.929781906E0
3.622414375E0,1.068060378E0,2.293987831E0,1.720756044E0,3.060087336E0
3.632446375E0,1.001605968E0,1.966953059E0,1.739018068E0,2.810036067E0
3.642478375E0,8.999673267E-1,1.463655434E0,1.339664349E0,2.178744819E0
3.652510375E0,5.158485277E-1,8.616874330E-1,1.129390873E0,1.511333411E0
3.662542375E0,1.317699283E-1,2.003715820E-1,1.066721585E0,1.093346708E0
3.672574375E0,7.870118380E-2,1.488747883E-1,1.050178058E0,1.063593687E0
3.682605375E0,-6.769073054E-2,1.913912089E-1,8.176582646E-1,8.424830370E-1
3.692637375E0,-2.712594970E-1,2.622484991E-1,3.077336973E-1,4.868839887E-1
3.702669375E0,-2.359297429E-1,4.038875042E-1,-3.269786382E-1,5.707039420E-1
3.712701375E0,1.352168620E-3,4.896152870E-1,-1.247904578E0,1.340518853E0
3.722733375E0,3.612523851E-1,5.686536724E-1,-1.997636908E0,2.108180140E0
3.732765375E0,6.834996025E-1,6.377829277E-1,-2.370936604E0,2.548583754E0
3.742797375E0,6.591129857E-1,6.617006709E-1,-2.085042257E0,2.284661664E0
3.752829375E0,5.193162920E-1,5.518479341E-1,-1.413139291E0,1.603492504E0
3.762860375E0,3.589226351E-1,4.268357060E-1,-8.373364842E-1,1.006054952E0
3.772892375E0,-4.844016172E-2,5.426384598E-1,-3.002580321E-1,6.220593486E-1
3.782924375E0,-4.824227002E-1,8.725835732E-1,1.681583208E-1,1.011143400E0
3.792956375E0,-9.058480907E-1,1.197847442E0,6.695634949E-1,1.644297580E0
3.802988375E0,-2.621320810E0,-3.371509296E-1,7.092746846E0,7.569151297E0
3.813020375E0,-2.557699888E0,-8.199595825E-1,4.987629928E0,5.664857874E0
3.823052375E0,1.820345237E0,-4.520408234E-1,4.040671599E-1,1.918663065E0
3.833084375E0,1.403744131E0,-1.569649959E-1,2.016681290E0,2.462141146E0
3.843115375E0,1.449495086E0,-4.204248188E-1,1.156751164E0,1.901543133E0
3.853147375E0,9.833247945E-1,2.385619218E-1,1.763014457E0,2.032746766E0
3.863179375E0,3.074214560E-1,3.683829915E-1,1.039489347E0,1.144880816E0
3.873211375E0,-6.454726741E-2,6.980756879E-1,8.424697548E-1,1.096006982E0
3.883243375E0,-5.211129221E-1,1.078454315E0,1.139970825E0,1.653528309E0
3.893275375E0,-6.005183300E-1,9.481521112E-1,1.150236781E0,1.607065445E0
3.903307375E0,-3.902825683E-1,5.451807927E-1,1.097895430E0,1.286435757E0
3.913339375E0,-2.410063686E-1,5.036616147E-2,8.887481278E-1,9.222223456E-1
3.923370375E0,-1.335808841E-1,-3.740592126E-1,5.514292735E-1,6.795869266E-1
3.933402375E0,7.409810945E-3,-5.703860563E-1,2.424290693E-1,6.198120781E-1
3.943434375E0,-6.538283452E-3,-6.728606667E-1,-2.965006113E-2,6.735453601E-1
3.953466375E0,-7.740083613E-2,-6.615308093E-1,-2.518021560E-1,7.120521237E-1
3.963498375E0,-1.784519785E-1,-5.707111615E-1,-3.483373475E-1,6.920225763E-1
3.973530375E0,-2.373585831E-1,-4.189760980E-1,-3.458166128E-1,5.928483764E-1
3.983562375E0,-2.804474462E-1,-2.355391124E-1,-3.670671487E-1,5.185245753E-1
3.993594375E0,-2.468389662E-1,-1.140389412E-1,-2.246745837E-1,3.527223043E-1
4.003625375E0,2.755845362E-1,-2.214641699E-1,-3.495021129E-1,4.971367438E-1
4.013657375E0,6.789539771E-1,-4.371134301E-1,-4.310766184E-1,9.153544148E-1
4.023689375E0,7.944144130E-2,-5.252971897E-1,-1.355524921E-1,5.482905782E-1
4.033721375E0,-2.014546325E-1,-5.066108406E-1,-5.121517718E-2,5.475961168E-1
4.043753375E0,-2.050033808E-3,-3.979983713E-1,6.185301661E-2,4.027812084E-1
4.053785375E0,9.762982685E-2,-2.282754087E-1,2.350814581E-1,3.419130551E-1
4.063817375E0,-1.499913872E-1,-7.587184405E-2,4.253223735E-1,4.573325643E-1
4.073849375E0,-3.183715002E-1,2.035035700E-2,5.269920051E-1,6.160317545E-1
4.083880375E0,-4.548363407E-1,2.140610833E-2,4.938517410E-1,6.717319855E-1
4.093912375E0,-5.346213059E-1,-4.040828012E-2,3.329404593E-1,6.311118120E-1
4.103944375E0,-3.966606015E-1,-2.235575828E-1,-1.296327710E-2,4.555059518E-1
4.113976375E0,-4.394523163E-1,-3.397777181E-1,-3.248771489E-1,6.435156548E-1
4.124008375E0,-4.212676218E-1,-3.524427142E-1,-6.032753652E-1,8.158574889E-1
4.134040375E0,-4.991547270E-1,-2.273018838E-1,-8.259192109E-1,9.914454755E-1
4.144072375E0,-5.259784634E-1,4.473375790E-3,-1.032356329E0,1.158634086E0
4.154104375E0,-5.174750404E-1,2.240413302E-1,-1.217987300E0,1.342187765E0
4.164135375E0,-5.074901887E-1,4.353324413E-1,-1.326095300E0,1.485122679E0
4.174167375E0,-3.698430412E-1,5.868315330E-1,-1.377286504E0,1.542100268E0
4.184199375E0,-3.218984310E-1,6.501538087E-1,-1.350757102E0,1.533252531E0
4.194231375E0,-3.365335733E-1,6.496490479E-1,-1.306402463E0,1.497326326E0
4.204263375E0,-3.821561445E-1,5.968286638E-1,-1.248273538E0,1.435421401E0
4.214295375E0,-4.478758517E-1,5.340968838E-1,-1.150085923E0,1.344823368E0
4.224327375E0,-4.392928701E-1,4.891658554E-1,-1.051104257E0,1.239790957E0
4.234359375E0,-3.541003998E-1,4.838907167E-1,-8.880394453E-1,1.071518257E0
4.244390375E0,-2.115403669E-1,4.950784868E-1,-6.575223237E-1,8.498162396E-1
4.254422375E0,-9.909764243E-2,5.534859585E-1,-4.643209630E-1,7.292194496E-1
4.264454375E0,-3.641817670E-2,5.819360979E-1,-2.963696337E-1,6.540725230E-1
4.274486375E0,3.775174844E-3,5.779447154E-1,-1.355174088E-1,5.936323055E-1
4.284518375E0,8.910713545E-3,5.368169354E-1,5.234836757E-2,5.394369050E-1
4.294550375E0,-4.979880796E-2,5.339781853E-1,2.240998024E-1,5.812343289E-1
4.304582375E0,-1.794424055E-1,4.708011398E-1,3.132832897E-1,5.932956343E-1
4.314614375E0,-2.770383915E-1,3.794849537E-1,3.014339072E-1,5.582306878E-1
4.324645375E0,-4.004397666E-1,2.353274797E-1,2.160306448E-1,5.122502014E-1
4.334677375E0,-4.461614846E-1,-7.873824053E-2,8.615404487E-2,4.611749130E-1
4.344709750E0,-4.166924679E-1,-3.862330791E-1,9.782040954E-2,5.765218441E-1
4.354741750E0,-3.821129482E-1,-5.434968676E-1,2.281899297E-1,7.024740524E-1
4.364773750E0,-2.866837940E-1,-5.982235171E-1,4.296001965E-1,7.903260738E-1
4.374805750E0,-1.237027442E-1,-6.202329484E-1,7.275538409E-1,9.640154929E-1
4.384837750E0,6.757456281E-2,-5.787868606E-1,9.831490856E-1,1.142865992E0
4.394869750E0,2.146154907E-1,-5.425977121E-1,1.152914221E0,1.292162253E0
4.404900750E0,2.822808955E-1,-5.385510003E-1,1.059006768E0,1.221153152E0
4.414932750E0,2.984394018E-1,-6.039077416E-1,7.706466508E-1,1.023556006E0
4.424964750E0,2.542904203E-1,-6.867986016E-1,4.491918772E-1,8.591445045E-1
4.434996750E0,1.818121175E-1,-7.474541084E-1,1.431041712E-1,7.824462244E-1
4.445028750E0,1.077394069E-1,-7.764541054E-1,-2.200745791E-1,8.141999619E-1
4.455060750E0,9.099828945E-2,-7.650166592E-1,-5.387057322E-1,9.400718289E-1
4.465092750E0,2.249682235E-1,-7.844295613E-1,-8.176161647E-1,1.155178182E0
4.475124750E0,5.138534943E-1,-9.302026941E-1,-1.020475956E0,1.473327405E0
4.485155750E0,7.572480485E-1,-1.063638787E0,-9.566126668E-1,1.618598119E0
4.495187750E0,6.834651770E-1,-9.762436701E-1,-5.006005973E-1,1.292585513E0
4.505219750E0,3.937490170E-1,-7.320623365E-1,3.043616080E-1,8.852059316E-1
4.515251750E0,7.434614103E-2,-5.973649266E-1,1.266166602E0,1.401980766E0
4.525283750E0,-5.255733244E-3,-7.623881165E-1,2.119957736E0,2.252883500E0
4.535315750E0,8.336064722E-2,-1.061076902E0,2.658593886E0,2.863730896E0
4.545347750E0,1.955451440E-1,-1.453659911E0,2.619071971E0,3.001816622E0
4.555379750E0,2.502022847E-1,-1.760017466E0,2.138997440E0,2.781289757E0
4.565411750E0,2.237898269E-1,-1.903499075E0,1.341213276E0,2.339282725E0
4.575442750E0,2.240862441E-1,-1.855896308E0,5.063215131E-1,1.936731067E0
4.585474750E0,1.535835876E-1,-1.591539303E0,-1.955864400E-1,1.610850498E0
4.595506750E0,-9.980696451E-2,-1.069548202E0,-5.856957114E-1,1.223492645E0
4.605538750E0,-2.322738444E-1,-5.315391655E-1,-6.737530249E-1,8.890602689E-1
4.615570750E0,-1.230074006E-1,-1.347765666E-1,-5.410434490E-1,5.709847259E-1
4.625602750E0,2.341194084E-1,1.025842823E-1,-2.190852302E-1,3.366508139E-1
4.635634750E0,7.612380423E-1,1.031258076E-1,6.068006516E-2,7.705844272E-1
4.645666750E0,1.131674795E0,9.543679208E-3,1.999853003E-1,1.149248904E0
4.655697750E0,1.216827139E0,-6.974149525E-2,1.719525790E-1,1.230893924E0
4.665729750E0,1.035367864E0,-1.103238031E-1,1.358308196E-3,1.041229946E0
4.675761750E0,7.053877772E-1,-8.137570024E-2,-1.952437931E-1,7.364197578E-1
4.685793750E0,3.603633890E-1,5.921862669E-2,-3.290620011E-1,4.915795139E-1
4.695825750E0,1.375986522E-1,1.740838160E-1,-3.856876069E-1,4.449645988E-1
4.705857750E0,1.185087721E-1,2.169744585E-1,-3.609456986E-1,4.374974766E-1
4.715889750E0,1.670387252E-1,1.738811369E-1,-3.509492987E-1,4.257957207E-1
4.725921750E0,2.383619471E-1,1.152815111E-1,-3.638301301E-1,4.499762307E-1
4.735952750E0,2.723256088E-1,1.120596953E-1,-3.910214370E-1,4.895062581E-1
4.745984750E0,2.627983384E-1,1.991523644E-1,-5.173019993E-1,6.134541461E-1
4.756016750E0,1.917007276E-1,3.175606741E-1,-7.092391920E-1,8.003837718E-1
4.766048750E0,1.566536864E-1,4.269891954E-1,-9.485318148E-1,1.051937619E0
4.776080750E0,1.288587458E-1,4.944037912E-1,-1.212471621E0,1.315723040E0
4.786112750E0,1.640636984E-1,5.300296336E-1,-1.413245126E0,1.518258903E0
4.796144750E0,1.942236002E-1,5.480155228E-1,-1.555394447E0,1.660510676E0
4.806176750E0,2.138356366E-1,6.152082168E-1,-1.548661378E0,1.680047289E0
4.816207750E0,2.819614730E-1,7.256315687E-1,-1.410586982E0,1.611148373E0
4.826239750E0,3.842116235E-1,7.813216200E-1,-1.309400915E0,1.572454388E0
4.836271750E0,4.149451006E-1,7.571245261E-1,-1.272628945E0,1.537856110E0
4.846303750E0,2.276915825E-1,6.508836143E-1,-1.329674966E0,1.497841264E0
4.856335750E0,-1.873463427E-2,5.151525629E-1,-1.399615851E0,1.491528639E0
4.866367750E0,1.506742689E-1,5.866640834E-1,-1.505880225E0,1.623130535E0
4.876399750E0,8.581671900E-1,5.389652755E-1,-1.570980785E0,1.869469208E0
4.886431750E0,1.077460289E0,5.310359395E-1,-1.699761032E0,2.081371521E0
4.896462750E0,1.295138386E0,6.972651907E-1,-1.709496061E0,2.255202645E0
4.906494750E0,1.860130569E0,9.181838885E-1,-1.383723119E0,2.493559114E0
4.916526750E0,1.178204233E0,3.902175180E-1,-1.049281095E0,1.625246363E0
4.926558750E0,5.634382119E-1,-1.434986389E-1,-6.295071441E-1,8.569327409E-1
4.936590750E0,4.130125958E-1,-2.122683270E-1,-8.684167743E-2,4.724179547E-1
4.946622750E0,6.085957102E-1,3.170192219E-2,5.180650610E-1,7.998657123E-1
4.956654750E0,7.056623040E-1,4.352241216E-1,1.159518651E0,1.425434259E0
4.966686750E0,7.855608514E-1,6.928849684E-1,1.713546427E0,2.008341801E0
4.976718750E0,7.719355233E-1,5.229808152E-1,2.086299409E0,2.285178025E0
4.986749750E0,6.057584585E-1,1.087975337E-1,2.246651697E0,2.329425693E0
4.996781750E0,2.700167444E-1,-2.005415167E-1,2.141626933E0,2.167877271E0
5.006813750E0,-4.292499483E-2,-3.163242804E-1,1.789236880E0,1.817490638E0
5.016845750E0,-2.372292500E-1,-1.072398354E-1,1.387403356E0,1.411618282E0
5.026877750E0,-3.688891411E-1,3.710935414E-1,9.795214731E-1,1.110518767E0
5.036909750E0,-7.353029365E-1,8.428277506E-1,1.968465149E-1,1.135683748E0
5.046941750E0,-8.582270508E-1,9.209642395E-1,-4.706920892E-1,1.343979109E0
5.056972750E0,-7.654707686E-1,8.543945664E-1,-5.835427666E-1,1.287034472E0
5.067004750E0,-7.551255092E-1,7.060873966E-1,4.439907789E-2,1.034768198E0
5.077036750E0,-8.334839000E-1,3.166486546E-1,1.066401157E0,1.390026334E0
5.087068750E0,-6.383004063E-1,5.994068474E-2,1.237005368E0,1.393270460E0
5.097100750E0,-6.196727121E-1,1.052232769E-1,1.352135875E0,1.491086058E0
5.107132750E0,-5.789445893E-1,2.259644794E-1,1.154629210E0,1.311260994E0
5.117164750E0,-1.565543751E-1,4.499960156E-1,8.185873872E-1,9.471488779E-1
5.127196750E0,1.443461015E-1,6.078861871E-1,9.230128115E-1,1.114591434E0
5.137228750E0,4.125868455E-1,5.912928124E-1,1.218389588E0,1.415743015E0
5.147259750E0,5.545524541E-1,4.409740542E-1,1.660897513E0,1.805704043E0
5.157291750E0,5.746332179E-1,1.550740063E-1,1.903870958E0,1.994737052E0
5.167323750E0,3.872667937E-1,-1.462531891E-1,1.937655585E0,1.981382026E0
5.177355750E0,2.319853391E-1,-4.670675464E-1,1.848507766E0,1.920664013E0
5.187387750E0,1.550218565E-1,-6.964387599E-1,1.669535020E0,1.815600701E0
5.197419750E0,-7.635878921E-3,-8.011182457E-1,1.314708433E0,1.539580142E0
5.207451750E0,-1.546886748E-1,-7.604043755E-1,9.177701980E-1,1.201850880E0
5.217483750E0,-2.251332247E-1,-6.216326988E-1,3.499891859E-1,7.480672505E-1
5.227514750E0,-2.909645041E-1,-4.684222001E-1,-2.316666842E-1,5.981213528E-1
5.237546750E0,-2.700453957E-1,-2.512203580E-1,-6.549998349E-1,7.517053730E-1
5.247578750E0,-2.136590141E-1,-2.770995498E-2,-9.239372563E-1,9.487244434E-1
5.257610750E0,-2.395778938E-1,2.408403808E-1,-1.150306363E0,1.199419187E0
5.267642750E0,-4.659605223E-1,3.850131306E-1,-1.234743665E0,1.374753155E0
5.277674750E0,-8.407382481E-1,3.664540681E-1,-1.136274215E0,1.460222064E0
5.287706750E0,-1.109949538E0,1.781447804E-1,-6.634970087E-1,1.305355056E0
5.297738750E0,-1.185247277E0,-1.175404367E-1,1.082261145E-1,1.195968124E0
5.307769750E0,-9.887963265E-1,-4.746550396E-1,8.190557492E-1,1.368892948E0
5.317801750E0,-7.579115613E-1,-7.457934992E-1,1.226298532E0,1.623097646E0
5.327833750E0,-5.090913391E-1,-8.658428299E-1,1.311231093E0,1.651721762E0
5.337865750E0,-4.163600537E-1,-8.594749197E-1,1.049505043E0,1.418983322E0
5.347897500E0,-4.012942640E-1,-6.632721832E-1,6.534316117E-1,1.013873733E0
5.357929500E0,-2.690350699E-1,-3.973590879E-1,3.166583025E-1,5.749318170E-1
5.367961500E0,-7.924175888E-2,-2.008299306E-1,2.248254418E-2,2.170653869E-1
5.377993500E0,1.069198465E-1,-2.349908262E-2,-4.024609298E-1,4.170837571E-1
5.388024500E0,2.499206682E-1,1.364500397E-1,-9.225175524E-1,9.654623701E-1
5.398056500E0,3.588830933E-1,2.824801576E-1,-1.566391305E0,1.631616939E0
5.408088500E0,3.445903055E-1,3.094065857E-1,-2.031050822E0,2.083180827E0
5.418120500E0,2.313139509E-1,2.347019738E-1,-2.229834520E0,2.254052605E0
5.428152500E0,3.534963459E-2,1.620652297E-1,-2.203884577E0,2.210118088E0
5.438184500E0,-2.006324409E-1,7.952534884E-2,-1.997004824E0,2.008632850E0
5.448216500E0,-3.136513719E-1,-7.885291904E-2,-1.528626478E0,1.562464040E0
5.458248500E0,-3.527335766E-1,-2.386684325E-1,-1.073310227E0,1.154720070E0
5.468279500E0,-3.430188663E-1,-2.056249398E-1,-9.032574087E-1,9.878347559E-1
5.478311500E0,-2.853635658E-1,-6.044559181E-2,-9.288933563E-1,9.736164038E-1
5.488343500E0,-1.871173328E-1,1.063102743E-1,-1.111880216E0,1.132515954E0
5.498375500E0,-1.259099950E-1,2.882487282E-1,-1.341035521E0,1.377431278E0
5.508407500E0,-3.710496873E-3,4.008734107E-1,-1.512976990E0,1.565187731E0
5.518439500E0,2.657647222E-2,4.065083724E-1,-1.575376722E0,1.627196110E0
5.528471500E0,-4.414033860E-2,3.388104790E-1,-1.508427857E0,1.546640071E0
5.538503500E0,-1.340740237E-1,2.269859880E-1,-1.271967040E0,1.298999089E0
5.548534500E0,-2.040197329E-1,1.044052514E-1,-8.228359741E-1,8.541566298E-1
5.558566500E0,-2.428680490E-1,8.215688825E-2,-3.866541517E-1,4.639354228E-1
5.568598500E0,-3.114763539E-1,1.418975982E-1,-7.619857550E-2,3.506546311E-1
5.578630500E0,-3.098593064E-1,2.193580028E-1,7.473735631E-2,3.869320297E-1
5.588662500E0,-1.963733290E-1,2.593485725E-1,8.435251772E-2,3.360647462E-1
5.598694500E0,-6.806802213E-2,2.869047457E-1,1.313091677E-1,3.227842720E-1
5.608726500E0,2.290193573E-2,3.525534824E-1,2.495784599E-1,4.325596655E-1
5.618758500E0,7.690550387E-3,2.918690318E-1,1.839791322E-1,3.451014305E-1
5.628789500E0,-1.583323672E-1,1.789046261E-1,6.403285861E-2,2.473382516E-1
5.638821500E0,-3.906681190E-1,1.171311316E-1,-7.920053601E-2,4.154684177E-1
5.648853500E0,-5.774862206E-1,1.138090360E-1,-5.644434214E-2,5.912941700E-1
5.658885500E0,-6.390644181E-1,1.511394149E-1,2.096419770E-1,6.893447698E-1
5.668917500E0,-5.649787340E-1,1.337103269E-1,6.595185632E-1,8.786604330E-1
5.678949500E0,-4.241907911E-1,1.128860530E-1,1.054444771E0,1.142162363E0
5.688981500E0,-3.048824488E-1,1.231107867E-1,1.290720815E0,1.331942114E0
5.699013500E0,-1.947176168E-1,9.474185050E-2,1.333689079E0,1.351154147E0
5.709044500E0,-1.571241863E-1,-6.203866571E-2,1.281170558E0,1.292259573E0
5.719076500E0,-1.957129591E-1,-2.003557214E-1,1.305770963E0,1.335471372E0
5.729108500E0,-2.426300673E-1,-2.309840217E-1,1.408767913E0,1.448050414E0
5.739140500E0,-2.127054063E-1,-2.930022222E-1,1.419060182E0,1.464522343E0
5.749172500E0,-2.425318341E-1,-3.227949554E-1,1.235298566E0,1.299607949E0
5.759204500E0,-2.789748249E-1,-2.944438532E-1,1.003503243E0,1.082378351E0
5.769236500E0,-1.183329537E-1,-2.817662126E-1,8.618076664E-1,9.143890531E-1
5.779268500E0,5.243461400E-2,-2.981062567E-1,9.025960886E-1,9.519960233E-1
5.789299500E0,7.683394857E-2,-2.802228400E-1,1.277725378E0,1.310347449E0
5.799331500E0,5.077159278E-2,-3.106739697E-1,1.771829719E0,1.799576790E0
5.809363500E0,-3.839917682E-2,-5.317215255E-1,2.133126251E0,2.198733699E0
5.819395500E0,-1.563620748E-1,-7.781497979E-1,2.256301357E0,2.391832356E0
5.829427500E0,-1.645228145E-1,-9.873827621E-1,1.996594934E0,2.233469008E0
5.839459500E0,-3.479422219E-2,-1.177149468E0,1.382778794E0,1.816306334E0
5.849491500E0,6.408570282E-2,-1.122321004E0,4.059523022E-1,1.195202362E0
5.859523500E0,2.063556225E-1,-9.100881261E-1,-7.459439188E-1,1.194686306E0
5.869554500E0,3.771709181E-1,-6.800852671E-1,-1.763098657E0,1.926990074E0
5.879586500E0,5.111087747E-1,-3.894748485E-1,-2.454326085E0,2.537053285E0
5.889618500E0,6.530549779E-1,-1.135348016E-1,-2.517114657E0,2.602928572E0
5.899650500E0,8.629918007E-1,-2.392388284E-3,-2.040601664E0,2.215584736E0
5.909682500E0,1.051087007E0,-7.421286106E-2,-1.319609569E0,1.688686134E0
5.919714500E0,1.176111295E0,-1.521498138E-1,-6.098499745E-1,1.333530778E0
5.929746500E0,1.205768008E0,-2.338450643E-1,-6.606535077E-2,1.230010013E0
5.939778500E0,1.177416540E0,-3.167653066E-1,1.965839750E-1,1.235028432E0
5.949810500E0,1.106459262E0,-3.688923571E-1,2.121188575E-1,1.185465343E0
5.959841500E0,9.514014090E-1,-3.401670331E-1,4.752266049E-2,1.011502177E0
5.969873500E0,7.151125740E-1,-1.276783392E-1,5.790322244E-2,7.287252808E-1
5.979905500E0,5.728589534E-1,1.010018796E-1,2.867690903E-1,6.485408787E-1
5.989937500E0,5.896717449E-1,1.774320048E-1,4.991165739E-1,7.926614898E-1
5.999969500E0,7.090364398E-1,9.398902148E-2,6.523633254E-1,9.680622487E-1
6.010001500E0,7.555182228E-1,-9.831669196E-2,6.487591016E-1,1.000680933E0
6.020033500E0,6.004863165E-1,-2.699055742E-1,3.112127906E-1,7.282075503E-1
6.030065500E0,2.659228163E-1,-2.069313540E-1,-1.878780556E-1,3.857897008E-1
6.040096500E0,1.046388477E-2,-2.896666780E-2,-6.684934545E-1,6.692025548E-1
6.050128500E0,-4.545515813E-2,1.122595239E-1,-1.106520658E0,1.113129076E0
6.060160500E0,-2.369620688E-2,2.074233972E-1,-1.446608169E0,1.461595420E0
6.070192500E0,5.736922547E-3,2.502975212E-1,-1.704417754E0,1.722707649E0
6.080224500E0,2.340450391E-2,3.495449437E-1,-1.846965271E0,1.879896313E0
6.090256500E0,3.743102409E-2,5.006551225E-1,-1.855963551E0,1.922669326E0
6.100288500E0,2.817926712E-2,6.447824103E-1,-1.716567684E0,1.833887412E0
6.110320500E0,8.169934362E-2,7.491951169E-1,-1.512668257E0,1.690009871E0
6.120351500E0,6.353811108E-2,8.118459861E-1,-1.327345435E0,1.557233733E0
6.130383500E0,9.537225343E-2,9.464759338E-1,-1.031204427E0,1.402959419E0
6.140415500E0,3.027155437E-1,1.076165861E0,-6.954444408E-1,1.316591293E0
6.150447500E0,5.311793424E-1,1.118731983E0,-4.861673301E-1,1.330440310E0
6.160479500E0,7.201696115E-1,1.144251571E0,-4.502701038E-1,1.425025998E0
6.170511500E0,8.106901377E-1,1.139437705E0,-5.193754220E-1,1.491739794E0
6.180543500E0,7.991391094E-1,1.156780985E0,-6.057931763E-1,1.530931395E0
6.190575500E0,8.089393352E-1,1.123110963E0,-6.160462689E-1,1.515016201E0
6.200606500E0,8.010981459E-1,1.064838343E0,-5.488886583E-1,1.441151517E0
6.210638500E0,7.087303381E-1,9.983362050E-1,-4.557536227E-1,1.306401636E0
6.220670500E0,6.208519493E-1,8.436839291E-1,-2.826929963E-1,1.084976979E0
6.230702500E0,6.251237058E-1,6.936594321E-1,-2.923140049E-2,9.342363352E-1
6.240734500E0,5.886090866E-1,6.033002159E-1,3.012929893E-1,8.951029397E-1
6.250766500E0,5.245434105E-1,5.419690633E-1,5.054479390E-1,9.079393560E-1
6.260798500E0,4.727913858E-1,4.158750272E-1,5.404429400E-1,8.297965438E-1
6.270830500E0,3.621047629E-1,3.181171829E-1,4.068276304E-1,6.307353821E-1
6.280861500E0,1.676913475E-1,2.737476334E-1,1.388479829E-1,3.497669469E-1
6.290893500E0,-5.460765861E-2,2.111096281E-1,-9.628317654E-2,2.383688770E-1
6.300925500E0,-2.794523232E-1,2.034810582E-1,-1.825752157E-1,3.909371450E-1
6.310957500E0,-4.210078593E-1,2.219857416E-1,-1.606621903E-1,5.023321873E-1
6.320989500E0,-4.377478530E-1,2.990605223E-1,1.011860669E-1,5.397212233E-1
6.331021500E0,-3.617113915E-1,3.476900607E-1,4.858223444E-1,6.983887595E-1
6.341053500E0,-2.013989378E-1,2.772477767E-1,8.861630738E-1,9.501120224E-1
6.351085500E0,-4.492510803E-2,1.578800851E-1,1.173333283E0,1.184759630E0
6.361116500E0,6.943203136E-4,4.437451959E-2,1.283216498E0,1.283983708E0
6.371148500E0,-3.253346935E-2,-1.404705852E-2,1.104471794E0,1.105040130E0
6.381180500E0,-6.300597791E-2,-4.348632753E-2,7.550644058E-1,7.589354853E-1
6.391212500E0,-8.466735374E-2,-3.074261338E-2,5.312364990E-1,5.388189741E-1
6.401244500E0,-7.707616948E-2,1.026461166E-1,6.851626968E-1,6.970831244E-1
6.411276500E0,4.221002653E-2,2.383105829E-1,1.244679839E0,1.267991136E0
6.421308500E0,2.427430282E-1,2.777529761E-1,1.967903232E0,2.002177321E0
6.431340500E0,3.300154627E-1,1.293772477E-1,2.652924426E0,2.676500829E0
6.441372500E0,2.614731218E-1,-2.056429200E-1,3.109162783E0,3.126907484E0
6.451403500E0,1.442128032E-1,-6.755789642E-1,3.132859794E0,3.208117011E0
6.461435500E0,9.685912728E-4,-1.069209137E0,2.706669109E0,2.910200471E0
6.471467500E0,-2.323461306E-1,-1.296074526E0,1.798293048E0,2.228822960E0
6.481499500E0,-4.291761272E-1,-1.406059483E0,6.605131745E-1,1.611667792E0
6.491531500E0,-5.186588457E-1,-1.369361188E0,-4.719428086E-1,1.538469069E0
6.501563500E0,-4.886483037E-1,-1.159734706E0,-1.292024744E0,1.803632361E0
6.511595500E0,-4.012849816E-1,-8.894173416E-1,-1.715447357E0,1.973538061E0
6.521627500E0,-3.367715549E-1,-7.033636174E-1,-1.814749451E0,1.975209110E0
6.531658500E0,-3.878345583E-1,-6.788623220E-1,-1.779459166E0,1.943642102E0
6.541690500E0,-4.916454769E-1,-7.528255069E-1,-1.602461609E0,1.837483259E0
6.551722500E0,-6.430142853E-1,-8.202909735E-1,-1.397240127E0,1.743165117E0
6.561754500E0,-7.482939879E-1,-8.346207449E-1,-1.259959783E0,1.686426498E0
6.571786500E0,-7.147168636E-1,-7.864683393E-1,-1.148375612E0,1.564646667E0
6.581818500E0,-5.758709638E-1,-6.554129407E-1,-1.018289682E0,1.340935258E0
6.591850500E0,-3.100278524E-1,-4.897736004E-1,-7.456275845E-1,9.444341923E-1
6.601882500E0,-2.223670531E-2,-3.336029488E-1,-2.153921288E-1,3.977174470E-1
6.611913500E0,1.382985273E-1,-1.260149525E-1,4.994937193E-1,5.333856265E-1
6.621945500E0,1.827245024E-1,3.948551640E-2,1.285176485E0,1.298701639E0
6.631977500E0,1.470418689E-1,7.705621585E-2,1.879926610E0,1.887242176E0
6.642009500E0,1.164191600E-2,-5.988469765E-2,2.040529743E0,2.041441487E0
6.652041500E0,-1.541520466E-1,-2.650683188E-1,1.678232169E0,1.706015029E0
6.662073500E0,-3.438838888E-1,-4.114574558E-1,9.030574340E-1,1.050269535E0
6.672105500E0,-4.640024725E-1,-4.331506258E-1,9.588848948E-3,6.348304539E-1
6.682137500E0,-4.800979934E-1,-3.065651312E-1,-8.480105764E-1,1.021566542E0
6.692169500E0,-4.109481267E-1,-1.368881424E-1,-1.560154080E0,1.619165674E0
6.702200500E0,-3.080094301E-1,1.079701526E-1,-1.990170599E0,2.016756399E0
6.712232500E0,-2.343023166E-1,3.348318873E-1,-2.220798817E0,2.258087101E0
6.722264500E0,-1.913453814E-1,4.532546689E-1,-2.240168889E0,2.293558262E0
6.732296500E0,-1.458031363E-1,4.516702196E-1,-2.072759011E0,2.126404115E0
6.742328500E0,-1.066435291E-1,4.172089233E-1,-1.773421916E0,1.824955183E0
6.752360500E0,-1.519124899E-1,4.194124465E-1,-1.454017761E0,1.520904946E0
6.762392500E0,-1.807469010E-1,4.812951377E-1,-1.168243282E0,1.276364688E0
6.772424500E0,-1.959285752E-1,5.571412723E-1,-9.435909176E-1,1.113174840E0
6.782455500E0,-1.737915649E-1,5.856954190E-1,-6.970927709E-1,9.269201493E-1
6.792487500E0,-1.585352656E-1,6.320275864E-1,-3.921236372E-1,7.604953960E-1
6.802519500E0,-1.363931756E-1,7.249187931E-1,-7.597696602E-2,7.415408649E-1
6.812551500E0,1.148613156E-1,1.203309473E0,4.192839539E-1,1.279431844E0
6.822583500E0,5.445105921E-1,1.294512734E0,7.213774270E-1,1.578809804E0
6.832615500E0,1.056361634E0,1.218354797E0,1.263197971E0,2.048403629E0
6.842647500E0,1.314077518E0,8.747842459E-1,1.253130235E0,2.015535310E0
6.852679500E0,1.149831715E0,3.093735489E-1,1.173586468E0,1.671864278E0
6.862710500E0,4.848733048E-1,-1.898444742E-3,8.753287679E-1,1.000652876E0
6.872742500E0,-1.678419864E-1,-2.740999281E-1,8.960103697E-1,9.519119106E-1
6.882774500E0,-3.716627678E-1,-3.850641476E-1,1.172235176E0,1.288620549E0
6.892806500E0,-3.374524632E-1,-4.812660478E-1,1.575607687E0,1.681674985E0
6.902838500E0,-1.368920892E-2,-5.293914101E-1,2.141174943E0,2.205691002E0
6.912870500E0,2.687674136E-1,-5.452686471E-1,2.492254634E0,2.565323953E0
6.922902500E0,3.617404814E-1,-3.379936230E-1,2.429288308E0,2.479221158E0
6.932934500E0,2.341852261E-1,4.769076794E-2,-6.140202087E-1,6.588914525E-1
6.942966500E0,9.238020395E-1,4.401131979E-1,-2.334416649E0,2.548845018E0
6.952997500E0,1.583860008E0,6.697070441E-1,-2.072097107E0,2.692713589E0
6.963029500E0,1.808342365E0,6.625982916E-1,-5.073254800E-1,1.991611846E0
6.973061500E0,1.200434543E0,5.333194233E-1,6.781828755E-1,1.478311439E0
6.983093500E0,3.981206878E-1,1.314648499E-1,1.059374558E0,1.139323283E0
6.993125500E0,-1.402920990E-1,-3.635627662E-1,1.166317209E0,1.229697357E0
7.003157500E0,-5.116651373E-1,-6.866826805E-1,8.788745195E-1,1.227091984E0
7.013189500E0,-7.337928200E-1,-1.057261667E0,5.923896039E-1,1.416749652E0
7.023221500E0,-8.334317136E-1,-1.120601777E0,8.039366037E-1,1.611418886E0
7.033252500E0,-9.591598602E-1,-7.525438173E-1,9.262521690E-1,1.531095332E0
7.043284500E0,-9.166046286E-1,-1.609840795E-1,1.108040934E0,1.447008857E0
7.053316500E0,-4.338594545E-1,6.400061122E-1,1.330288923E0,1.538671657E0
7.063348500E0,3.347744384E-1,1.019179190E0,1.419344357E0,1.779139834E0
7.073380500E0,8.222513987E-1,7.544216506E-1,1.543229899E0,1.904417998E0
7.083412500E0,9.276775740E-1,1.949577181E-1,1.615658190E0,1.873217975E0
7.093444500E0,7.023793117E-1,-3.579682964E-1,1.412481480E0,1.617585215E0
7.103476500E0,2.785175727E-1,-8.069878270E-1,7.348651993E-1,1.126422768E0
7.113508500E0,-9.699573286E-2,-1.192143630E0,-3.877750629E-1,1.257371904E0
7.123539500E0,-2.092922404E-1,-1.338918098E0,-1.492050975E0,2.015619266E0
7.133571500E0,-2.391791137E-1,-1.162632294E0,-2.134913744E0,2.442698752E0
7.143603500E0,-9.462709889E-2,-7.163749878E-1,-2.379735494E0,2.487024011E0
7.153635500E0,2.346599104E-1,-2.239160536E-1,-2.326373219E0,2.348875482E0
7.163667500E0,5.296458370E-1,1.665148146E-1,-2.060123178E0,2.133625882E0
7.173699500E0,6.820796793E-1,4.763309978E-1,-1.687323419E0,1.881271971E0
7.183731500E0,7.122326010E-1,6.959766836E-1,-1.159403461E0,1.528357029E0
7.193763500E0,6.740274055E-1,7.585319509E-1,-5.736492777E-1,1.165657393E0
7.203794500E0,5.810188159E-1,7.608325379E-1,5.760326028E-2,9.590449159E-1
7.213826500E0,6.288242624E-1,5.426705830E-1,4.900545591E-1,9.643986652E-1
7.223858500E0,9.504988182E-1,1.833452940E-1,6.678397357E-1,1.176041416E0
7.233890500E0,1.159948422E0,4.951129854E-2,8.361342967E-1,1.430752345E0
7.243922500E0,1.048784666E0,6.700806811E-2,9.305165434E-1,1.403673892E0
7.253954500E0,7.685692813E-1,2.123002674E-1,9.514039671E-1,1.241345904E0
7.263986500E0,4.720005499E-1,4.332880354E-1,9.362047148E-1,1.134461242E0
7.274018500E0,2.872042328E-1,6.025755997E-1,7.077908367E-1,9.729087795E-1
7.284050500E0,1.283873506E-1,8.073535703E-1,2.349060416E-1,8.505785958E-1
7.294081500E0,-6.359866630E-2,9.645808138E-1,-3.129862511E-1,1.016081360E0
7.304113500E0,-1.503918484E-1,8.805600525E-1,-9.675224018E-1,1.316853565E0
7.314145500E0,-2.196751777E-1,8.012134822E-1,-1.532421321E0,1.743133768E0
7.324177500E0,-3.098286816E-1,8.726066697E-1,-1.909101292E0,2.121816193E0
7.334209500E0,-4.896806297E-1,1.028094001E0,-2.154061037E0,2.436543319E0
7.344241750E0,-6.749378170E-1,1.186149283E0,-2.178383115E0,2.570572733E0
7.354273750E0,-8.079419464E-1,1.230990630E0,-1.954636484E0,2.447184486E0
7.364305750E0,-6.253835414E-1,1.159147719E0,-1.445253369E0,1.955373445E0
7.374336750E0,-3.441980670E-1,1.140846884E0,-6.660300225E-1,1.365137324E0
7.384368750E0,-1.685283947E-1,1.028295876E0,6.096131623E-2,1.043796202E0
7.394400750E0,-1.031011031E-1,8.040284050E-1,5.505755800E-1,9.799107014E-1
7.404432750E0,-1.240124273E-1,5.959618141E-1,7.548188227E-1,9.696911989E-1
7.414464750E0,-1.140224228E-1,5.066342660E-1,7.982455087E-1,9.522999971E-1
7.424496750E0,-3.433240179E-2,3.524885052E-1,6.434112382E-1,7.344418844E-1
7.434528750E0,1.007966058E-1,1.930820775E-1,3.699726301E-1,4.293255076E-1
7.444560750E0,2.717627960E-1,1.637180183E-1,1.365014952E-1,3.453856758E-1
7.454592750E0,3.985461092E-1,2.174597043E-1,-1.506728071E-1,4.783618076E-1
7.464623750E0,4.168655090E-1,3.730118667E-1,-4.006178874E-1,6.880475252E-1
7.474655750E0,4.983789842E-1,6.289585291E-1,-4.324705946E-1,9.115927043E-1
7.484687750E0,4.476179164E-1,8.127453610E-1,-2.874801117E-1,9.713710082E-1
7.494719750E0,2.556619944E-1,8.674685021E-1,-8.959513128E-2,9.087859732E-1
7.504751750E0,4.005439566E-2,9.159670629E-1,1.787002659E-1,9.340951771E-1
7.514783750E0,-1.826172791E-1,8.437616971E-1,4.049483353E-1,9.535544171E-1
7.524815750E0,-3.824710536E-1,6.099093968E-1,3.841357559E-1,8.159864326E-1
7.534847750E0,-6.213998334E-1,3.913148211E-1,2.792676973E-1,7.856560882E-1
7.544879750E0,-7.337662882E-1,1.642112309E-1,2.228876746E-1,7.842558317E-1
7.554910750E0,-6.964956240E-1,6.150145277E-2,3.456441200E-1,7.799733589E-1
7.564942750E0,-6.504333057E-1,6.903062001E-2,6.356736177E-1,9.120908178E-1
7.574974750E0,-6.912894094E-1,1.356121337E-1,9.709740132E-1,1.199609200E0
7.585006750E0,-6.129978231E-1,1.251283684E-1,1.240425990E0,1.389273218E0
7.595038750E0,-4.602576598E-1,1.457569067E-1,1.582346603E0,1.654358776E0
7.605070750E0,-2.386406583E-1,1.477617708E-1,1.924523324E0,1.944883783E0
7.615102750E0,-9.542765580E-3,-2.820843011E-2,2.018031996E0,2.018251699E0
7.625134750E0,1.832030605E-1,-2.059839588E-1,1.936675007E0,1.956196012E0
7.635165750E0,3.012893530E-1,-3.999903350E-1,1.703792687E0,1.775859528E0
7.645197750E0,3.461871801E-1,-6.620302346E-1,1.430908395E0,1.614195908E0
7.655229750E0,5.083424935E-1,-8.268163200E-1,1.444651106E0,1.740417805E0
7.665261750E0,6.972427520E-1,-8.398532720E-1,1.779893614E0,2.087946899E0
7.675293750E0,6.913905662E-1,-7.201487808E-1,2.354153926E0,2.557083473E0
7.685325750E0,5.283761507E-1,-5.936840312E-1,2.757707700E0,2.869946662E0
7.695357750E0,2.620146470E-1,-5.918418659E-1,2.589638257E0,2.669298554E0
7.705389750E0,1.101474365E-1,-7.079605521E-1,1.947853130E0,2.075445113E0
7.715421750E0,8.234195262E-3,-8.273593801E-1,1.010657312E0,1.306146832E0
7.725452750E0,-8.131481610E-2,-9.123837429E-1,5.755297422E-2,9.178063731E-1
7.735484750E0,-1.666750466E-1,-9.599442641E-1,-9.467834973E-1,1.358555318E0
7.745516750E0,-3.552422514E-1,-8.794550018E-1,-1.698338989E0,1.945248950E0
7.755548750E0,-4.708611103E-1,-8.016754854E-1,-2.166913801E0,2.357945969E0
7.765580750E0,-5.544856497E-1,-8.691402210E-1,-2.465538706E0,2.672403445E0
7.775612750E0,-6.029730642E-1,-9.214156446E-1,-2.490461293E0,2.723046228E0
7.785644750E0,-5.848826926E-1,-9.219214287E-1,-2.175402204E0,2.434009375E0
7.795676750E0,-5.844271945E-1,-8.403651957E-1,-1.691417055E0,1.977033248E0
7.805708750E0,-6.320655933E-1,-7.288552849E-1,-1.175016112E0,1.520328847E0
7.815739750E0,-6.597737941E-1,-6.315853907E-1,-8.155994600E-1,1.224501549E0
7.825771750E0,-7.002395962E-1,-5.739714593E-1,-5.615379399E-1,1.065412402E0
7.835803750E0,-6.889230412E-1,-5.043015924E-1,-4.146108592E-1,9.491244478E-1
7.845835750E0,-6.753028294E-1,-4.405670880E-1,-3.214302152E-1,8.680153534E-1
7.855867750E0,-6.707092568E-1,-4.518238552E-1,-2.208703852E-1,8.383194083E-1
7.865899750E0,-5.506693182E-1,-4.672632819E-1,-9.231116295E-2,7.280748749E-1
7.875931750E0,-4.214913144E-1,-4.301708847E-1,9.994879603E-2,6.104847909E-1
7.885963750E0,-2.678283874E-1,-3.743652047E-1,2.663500285E-1,5.318117047E-1
7.895995750E0,-1.510796637E-1,-2.652707787E-1,3.218705106E-1,4.436150092E-1
7.906026750E0,-3.774933189E-2,-1.666460846E-1,2.856557804E-1,3.328590610E-1
7.916058750E0,-1.573299352E-2,-1.133932990E-1,1.370248210E-1,1.785535464E-1
7.926090750E0,-1.075985621E-1,-5.731440783E-2,-8.469808817E-2,1.484458085E-1
7.936122750E0,-2.550066860E-1,-1.251596510E-3,-3.221611172E-1,4.108743869E-1
7.946154750E0,-4.043912053E-1,1.042485461E-2,-6.330417860E-1,7.512541695E-1
7.956186750E0,-4.717702061E-1,7.360401973E-2,-9.317134684E-1,1.046935846E0
7.966218750E0,-5.818993335E-1,1.676557526E-1,-1.190093742E0,1.335304610E0
7.976250750E0,-5.330092651E-1,2.620055473E-1,-1.348477857E0,1.473478305E0
7.986282750E0,-5.044155035E-1,3.511707620E-1,-1.393076910E0,1.522635603E0
7.996313750E0,-4.990319720E-1,4.645377485E-1,-1.332585125E0,1.496867177E0
8.006345750E0,-4.492536019E-1,5.903395700E-1,-1.201933184E0,1.412435126E0
8.016377750E0,-3.861086065E-1,6.272740924E-1,-1.034798126E0,1.270181013E0
8.026409750E0,-3.537743810E-1,5.619058760E-1,-9.412058383E-1,1.151851968E0
8.036441750E0,-3.751943764E-1,4.895902902E-1,-8.092476296E-1,1.017522087E0
8.046473750E0,-3.883816750E-1,4.120648353E-1,-6.173408425E-1,8.377036885E-1
8.056505750E0,-4.147862756E-1,3.771891175E-1,-4.852551645E-1,7.414795071E-1
8.066537750E0,-4.160292109E-1,3.734660491E-1,-3.338678277E-1,6.511719593E-1
8.076569750E0,-4.034590495E-1,3.932204287E-1,-1.623760092E-1,5.863168755E-1
8.086600750E0,-3.843479733E-1,4.192645119E-1,2.566226006E-2,5.693545882E-1
8.096632750E0,-3.590791577E-1,4.332829191E-1,2.471927959E-1,6.146350200E-1
8.106664750E0,-3.704052510E-1,4.464562574E-1,4.466524315E-1,7.321349837E-1
8.116696750E0,-3.319623297E-1,4.624597943E-1,6.092921501E-1,8.338494912E-1
8.126728750E0,-3.172095853E-1,4.220524643E-1,7.193466890E-1,8.923059244E-1
8.136760750E0,-3.202941743E-1,2.901372327E-1,7.710378295E-1,8.838932664E-1
8.146792750E0,-2.694213151E-1,1.641259347E-1,8.866770440E-1,9.411277001E-1
8.156824750E0,-1.590920667E-1,-7.579307109E-3,9.766165763E-1,9.895189077E-1
8.166856750E0,-1.533757556E-2,-1.582994767E-1,1.038867204E0,1.050970519E0
8.176887750E0,1.298811680E-1,-2.812525347E-1,1.088129995E0,1.131370405E0
8.186919750E0,2.789615590E-1,-3.804667743E-1,1.066113474E0,1.165835519E0
8.196951750E0,4.730229721E-1,-4.083813818E-1,9.825070614E-1,1.164408095E0
8.206983750E0,5.636873033E-1,-3.656547537E-1,9.291260755E-1,1.146613291E0
8.217015750E0,5.562434689E-1,-3.303024879E-1,8.772191727E-1,1.089963305E0
8.227047750E0,5.305742652E-1,-3.007758030E-1,8.547822368E-1,1.050060859E0
8.237079750E0,4.774542479E-1,-3.195019497E-1,7.573886740E-1,9.506217220E-1
8.247111750E0,4.302647691E-1,-3.461636451E-1,6.658242005E-1,8.650311594E-1
8.257143750E0,4.766706479E-1,-3.620949689E-1,6.198387730E-1,8.617005150E-1
8.267174750E0,6.444490459E-1,-4.235661623E-1,6.004985225E-1,9.774054134E-1
8.277206750E0,8.415849249E-1,-4.694466323E-1,6.633028811E-1,1.169878643E0
8.287238750E0,9.146362366E-1,-4.419521472E-1,1.010065573E0,1.432520020E0
8.297270750E0,8.580072686E-1,-3.747136257E-1,1.572109298E0,1.829785347E0
8.307302750E0,6.116761331E-1,-3.552912218E-1,2.125198596E0,2.239832274E0
8.317334750E0,2.323407219E-1,-3.572166368E-1,2.549216455E0,2.584587099E0
8.327366750E0,-1.094070328E-1,-4.785226073E-1,2.730667836E0,2.774436991E0
8.337398750E0,-2.348681444E-1,-6.515822835E-1,2.601246734E0,2.691877986E0
8.347430625E0,-1.765520719E-1,-8.555754116E-1,2.109046832E0,2.282818096E0
8.357461625E0,-2.335962653E-3,-9.927945795E-1,1.279894111E0,1.619807232E0
8.367493625E0,2.206664635E-1,-1.005690687E0,2.745296985E-1,1.065586224E0
8.377525625E0,5.412199253E-1,-9.387810711E-1,-6.675701791E-1,1.272744613E0
8.387557625E0,8.390383894E-1,-8.120129972E-1,-1.512201650E0,1.910524628E0
8.397589625E0,9.573120669E-1,-4.746402754E-1,-2.029369748E0,2.293484545E0
8.407621625E0,9.006600025E-1,1.919655517E-2,-2.143889220E0,2.325471552E0
8.417653625E0,7.880489147E-1,4.585990240E-1,-2.063565434E0,2.256022265E0
8.427685625E0,7.719249983E-1,6.804868247E-1,-1.788298987E0,2.063236241E0
8.437717625E0,8.771145806E-1,6.317859502E-1,-1.408014207E0,1.775102104E0
8.447748625E0,9.758565845E-1,4.464906098E-1,-9.573429841E-1,1.438108316E0
8.457780625E0,1.039607169E0,2.114290322E-1,-5.206659025E-1,1.181769133E0
8.467812625E0,9.766450084E-1,-5.135624126E-2,-1.928639764E-1,9.968296993E-1
8.477844625E0,8.746940526E-1,-2.339437361E-1,5.053923905E-2,9.068481527E-1
8.487876625E0,7.342653481E-1,-2.454710832E-1,2.861831993E-1,8.254104904E-1
8.497908625E0,5.468363221E-1,-9.386389107E-2,4.245166272E-1,6.986091611E-1
8.507940625E0,3.603574322E-1,1.013332705E-1,4.841740143E-1,6.120052179E-1
8.517972625E0,1.336505756E-1,3.559807547E-1,4.265994054E-1,5.714646330E-1
8.528004625E0,-7.429347955E-2,5.373237428E-1,2.399755776E-1,5.931480452E-1
8.538035625E0,-2.168818532E-1,6.248735180E-1,-3.504353285E-2,6.623690067E-1
8.548067625E0,-2.692009481E-1,6.276790852E-1,-3.642452824E-1,7.740315305E-1
8.558099625E0,-2.467265535E-1,5.979560070E-1,-6.764246178E-1,9.359357040E-1
8.568131625E0,-2.488921064E-1,5.482952390E-1,-9.915164512E-1,1.160034406E0
8.578163625E0,-2.721756643E-1,5.084213213E-1,-1.285213907E0,1.408668385E0
8.588195625E0,-3.053306196E-1,5.404357772E-1,-1.570994818E0,1.689178006E0
8.598227625E0,-3.451793394E-1,6.039157815E-1,-1.732963861E0,1.867358239E0
8.608259625E0,-3.398176619E-1,7.471751963E-1,-1.754225507E0,1.936763782E0
8.618291625E0,-2.920019463E-1,9.347300470E-1,-1.652732461E0,1.921070011E0
8.628322625E0,-1.643399245E-1,1.086436788E0,-1.413171451E0,1.790085488E0
8.638354625E0,-1.982535012E-3,1.156717104E0,-1.131285955E0,1.617963628E0
8.648386625E0,2.139090191E-1,1.121972072E0,-8.079419464E-1,1.399052746E0
8.658418625E0,4.129473263E-1,1.019048359E0,-4.822105193E-1,1.200629850E0
8.668450625E0,5.507190926E-1,9.213916710E-1,-1.651487589E-1,1.086060884E0
8.678482625E0,5.526619762E-1,8.485556830E-1,2.924426436E-2,1.013083034E0
8.688514625E0,4.925776692E-1,7.906337495E-1,1.566626948E-1,9.446045130E-1
8.698546625E0,4.149201403E-1,7.263162777E-1,1.942006499E-1,8.587246069E-1
8.708578625E0,3.223036431E-1,6.407400839E-1,1.106883770E-1,7.257268152E-1
8.718610625E0,2.580481883E-1,5.710607153E-1,-5.800964177E-2,6.293364177E-1
8.728641625E0,2.298906472E-1,5.276223350E-1,-2.636755121E-1,6.330559325E-1
8.738673625E0,2.271303412E-1,5.419189234E-1,-4.795827806E-1,7.584615711E-1
8.748705625E0,2.600852486E-1,6.059846726E-1,-6.471224660E-1,9.239205842E-1
8.758737625E0,2.612859743E-1,6.866587070E-1,-7.906926602E-1,1.079335640E0
8.768769625E0,2.166222551E-1,7.391843913E-1,-9.418671584E-1,1.216730254E0
8.778801625E0,1.296838428E-1,7.314955951E-1,-1.092734093E0,1.321352149E0
8.788833625E0,9.796341050E-2,6.569988517E-1,-1.188493359E0,1.361528841E0
8.798865625E0,7.300811537E-2,5.714777680E-1,-1.186942677E0,1.319374831E0
8.808897625E0,4.635052445E-3,4.678399636E-1,-1.062296412E0,1.160762414E0
8.818928625E0,-4.141207803E-2,3.324057314E-1,-7.942185313E-1,8.619696084E-1
8.828960625E0,-4.216729846E-3,2.446866792E-1,-3.641669297E-1,4.387560877E-1
8.838992625E0,1.293030794E-1,1.205061445E-1,1.489940715E-1,2.311714743E-1
8.849024625E0,2.443973882E-1,-1.426837564E-2,6.688717693E-1,7.122661818E-1
8.859056625E0,2.614666350E-1,-1.458506083E-1,1.159854866E0,1.197873329E0
8.869088625E0,1.948426741E-1,-2.189831963E-1,1.494526686E0,1.522999450E0
8.879120625E0,1.483738555E-1,-3.122860470E-1,1.629514922E0,1.665789980E0
8.889152625E0,1.488151284E-1,-4.449694566E-1,1.617094851E0,1.683787254E0
8.899184625E0,1.774895268E-1,-5.708768204E-1,1.594414086E0,1.702809195E0
8.909215625E0,1.181092611E-1,-6.072131726E-1,1.595714507E0,1.711421170E0
8.919247625E0,-1.278312804E-2,-6.177149181E-1,1.614182938E0,1.728387018E0
8.929279625E0,-1.806065313E-1,-6.682310607E-1,1.661863473E0,1.800261557E0
8.939311625E0,-2.684026388E-1,-7.394320209E-1,1.822147933E0,1.984697151E0
8.949343625E0,-3.516130308E-1,-7.838161884E-1,1.857611881E0,2.046636617E0
8.959375625E0,-3.394374102E-1,-8.137936205E-1,1.673239231E0,1.891350665E0
8.969407625E0,-1.890748344E-1,-7.917985149E-1,1.272910781E0,1.510958648E0
8.979439625E0,1.163230464E-3,-7.787565927E-1,7.105869752E-1,1.054228169E0
8.989471625E0,1.498121335E-1,-8.014728063E-1,-4.274899364E-3,8.153653226E-1
8.999502625E0,2.378085995E-1,-7.856865665E-1,-7.155109155E-1,1.088950036E0
9.009534625E0,1.247071496E-1,-6.288379303E-1,-1.333052318E0,1.479194881E0
9.019566625E0,-2.145771001E-2,-3.659830749E-1,-1.694830660E0,1.734028549E0
9.029598625E0,-1.604215043E-1,-1.852550677E-1,-1.896830910E0,1.912595619E0
9.039630625E0,-2.699378800E-1,-3.360212110E-2,-1.928646196E0,1.947735020E0
9.049662625E0,-2.911911202E-1,1.280072451E-2,-1.780569552E0,1.804268289E0
9.059694625E0,-2.355082317E-1,-5.726843409E-2,-1.498972324E0,1.518440591E0
9.069726625E0,-1.489920250E-1,-1.644367142E-1,-1.119393303E0,1.141174581E0
9.079758625E0,-4.888528101E-2,-2.681764063E-1,-6.948696595E-1,7.464262853E-1
9.089789625E0,2.380741362E-2,-3.519841828E-1,-9.379986405E-2,3.650453018E-1
9.099821625E0,9.072927184E-2,-4.156985874E-1,5.469204855E-1,6.929351585E-1
9.109853625E0,1.540844747E-1,-4.600085684E-1,1.156040143E0,1.253705994E0
9.119885625E0,2.231244503E-1,-4.693080533E-1,1.727090333E0,1.803573006E0
9.129917625E0,2.270895386E-1,-4.817901045E-1,2.112145271E0,2.178267433E0
9.139949625E0,1.852490926E-1,-5.491089521E-1,2.247883120E0,2.321382431E0
9.149981625E0,2.063978869E-1,-6.370793615E-1,2.117931091E0,2.221283932E0
9.160013625E0,2.133477778E-1,-6.478976606E-1,1.673439791E0,1.807121851E0
9.170045625E0,2.438437848E-1,-5.476584772E-1,1.007253647E0,1.172155924E0
9.180076625E0,2.291962355E-1,-3.400921887E-1,2.347341335E-1,4.725396540E-1
9.190108625E0,3.011074498E-1,-1.321029273E-1,-4.512910277E-1,5.583730575E-1
9.200140625E0,3.846845171E-1,7.291353665E-2,-1.039755396E0,1.111030983E0
9.210172625E0,4.136151514E-1,2.278059869E-1,-1.523522444E0,1.595021535E0
9.220204625E0,3.577084608E-1,3.678994998E-1,-1.888377006E0,1.956852856E0
9.230236625E0,2.542114281E-1,4.708780307E-1,-2.171206827E0,2.236177242E0
9.240268625E0,1.605085913E-1,5.040940893E-1,-2.323212215E0,2.382685219E0
9.250300625E0,9.222111583E-2,4.639765620E-1,-2.376601971E0,2.423224281E0
9.260332625E0,7.819013715E-2,3.754192384E-1,-2.348083931E0,2.379191344E0
9.270363625E0,1.415621508E-1,2.417146126E-1,-2.241542984E0,2.258977810E0
9.280395625E0,1.703195613E-1,1.402050485E-1,-2.100480661E0,2.112033431E0
9.290427625E0,1.952537699E-1,1.261180828E-1,-1.913708314E0,1.927773149E0
9.300459625E0,2.588202766E-1,1.336109973E-1,-1.673526914E0,1.698685423E0
9.310491625E0,3.397696417E-1,1.728445718E-1,-1.447250778E0,1.496614002E0
9.320523625E0,4.000131391E-1,1.851844626E-1,-1.217328318E0,1.294678351E0
9.330555625E0,4.250793121E-1,1.846319007E-1,-9.781918162E-1,1.082423480E0
9.340587625E0,4.206904285E-1,1.511444581E-1,-7.107647306E-1,8.396496806E-1
9.350620167E0,3.849122661E-1,5.213728309E-2,-4.094770038E-1,5.643998277E-1
9.360651167E0,3.102767245E-1,-6.251799121E-2,-5.212675810E-2,3.207761585E-1
9.370683167E0,2.420374886E-1,-1.728739540E-1,3.105239886E-1,4.299915085E-1
9.380715167E0,1.583292792E-1,-2.689681924E-1,5.842268908E-1,6.623693147E-1
9.390747167E0,1.413780000E-1,-3.809699272E-1,8.278446990E-1,9.221999078E-1
9.400779167E0,1.302347053E-1,-4.335423162E-1,1.046330005E0,1.140055480E0
9.410811167E0,1.437996061E-1,-4.651506829E-1,1.261519235E0,1.352210881E0
9.420843167E0,2.140416596E-1,-5.011938704E-1,1.479087698E0,1.576296148E0
9.430875167E0,2.596001124E-1,-5.753073288E-1,1.666157084E0,1.781698675E0
9.440907167E0,3.478535635E-1,-6.329874799E-1,1.664197682E0,1.814174516E0
9.450938167E0,5.145034123E-1,-7.015536118E-1,1.464048659E0,1.703035439E0
9.460970167E0,6.786612508E-1,-7.567345899E-1,1.200032254E0,1.572674710E0
9.471002167E0,7.594550069E-1,-7.806811307E-1,1.005911711E0,1.482596812E0
9.481034167E0,7.633015247E-1,-7.338972659E-1,8.600786448E-1,1.364173629E0
9.491066167E0,7.693298578E-1,-6.599587123E-1,8.241001421E-1,1.306351781E0
9.501098167E0,8.281214185E-1,-5.765190911E-1,9.050384706E-1,1.355453422E0
9.511130167E0,8.773470806E-1,-4.758542304E-1,1.173414559E0,1.540479431E0
9.521162167E0,8.392203109E-1,-3.158511675E-1,1.708219614E0,1.929265907E0
9.531194167E0,6.821244105E-1,-1.287943534E-1,2.482799102E0,2.578017277E0
9.541225167E0,4.451020423E-1,6.448185168E-2,3.384068457E0,3.413823818E0
9.551257167E0,2.538879674E-1,1.575717541E-1,4.258551718E0,4.269022217E0
9.561289167E0,7.359449973E-2,9.414687803E-2,4.881676626E0,4.883138997E0
9.571321167E0,-9.633905400E-2,-9.769060135E-2,4.970650198E0,4.972543420E0
9.581353167E0,-3.035828503E-1,-3.492769951E-1,4.349285887E0,4.373836381E0
9.591385167E0,-4.850293889E-1,-5.992501420E-1,3.152371953E0,3.245273974E0
9.601417167E0,-5.747754149E-1,-7.037626898E-1,1.621628197E0,1.858850912E0
9.611449167E0,-5.180586656E-1,-6.758384344E-1,6.744646311E-2,8.542197585E-1
9.621481167E0,-2.889016429E-1,-5.639304013E-1,-1.143641707E0,1.307439486E0
9.631513167E0,1.190312209E-1,-3.483191480E-1,-1.823638973E0,1.860417632E0
9.641544167E0,5.794359381E-1,2.075688466E-3,-2.100406401E0,2.178866073E0
9.651576167E0,1.052109539E0,3.657115448E-1,-1.995399764E0,2.285235137E0
9.661608167E0,1.508024253E0,6.736167117E-1,-1.704431788E0,2.373390895E0
9.671640167E0,1.797007830E0,8.110493030E-1,-1.309573992E0,2.366859133E0
9.681672167E0,1.895935848E0,8.411167822E-1,-8.143136573E-1,2.228263206E0
9.691704167E0,1.787792325E0,7.827457825E-1,-3.336508960E-1,1.979953353E0
9.701736167E0,1.533126057E0,6.154161584E-1,1.210332710E-1,1.656460566E0
9.711768167E0,1.410191271E0,3.340292108E-1,4.543064368E-1,1.518752539E0
9.721800167E0,1.299584171E0,-5.361984462E-2,6.259725022E-1,1.443480404E0
9.731831167E0,1.204103013E0,-3.935442182E-1,6.616335011E-1,1.429160595E0
9.741863167E0,1.056486545E0,-6.537907769E-1,3.585465860E-1,1.293120975E0
9.751895167E0,7.551912173E-1,-7.511075950E-1,-4.608833849E-2,1.066114688E0
9.761927167E0,4.964767022E-1,-5.206340352E-1,-3.178628290E-1,7.865021885E-1
9.771959167E0,3.969605271E-1,-3.036415234E-1,-7.915118551E-1,9.360912624E-1
9.781991167E0,7.305782584E-2,-1.591492233E-1,-1.356822419E0,1.368076386E0
9.792023167E0,-3.111643684E-1,1.220625271E-1,-1.598393117E0,1.632967569E0
9.802055167E0,-5.218832197E-1,2.072431567E-1,-1.878409258E0,1.960544098E0
9.812087167E0,-2.376016811E-1,1.692760161E-1,-1.931321881E0,1.953231460E0
9.822118167E0,-1.375740208E-1,5.685749178E-1,-1.063913752E0,1.214132003E0
9.832150167E0,-3.312616140E-1,7.117336142E-1,-9.526160949E-1,1.234413391E0
9.842182167E0,-1.261649153E-2,7.791897252E-1,-1.586301075E0,1.767384198E0
9.852214167E0,4.147748370E-1,5.230192606E-1,-2.428578456E0,2.518646587E0
9.862246167E0,5.199821437E-1,8.643368796E-2,-3.277707020E0,3.319821610E0
9.872278167E0,5.626240237E-1,-1.436500087E-1,-3.900967584E0,3.943948428E0
9.882310167E0,6.548950236E-1,-8.917647064E-2,-3.980473929E0,4.034973685E0
9.892342167E0,5.667911881E-1,2.663757563E-1,-3.451062346E0,3.507426351E0
9.902374167E0,2.622745740E-1,8.145272268E-1,-2.594352282E0,2.731832045E0
9.912405167E0,4.583827866E-2,1.293972452E0,-1.767581132E0,2.191074830E0
9.922437167E0,6.682088412E-2,1.393723319E0,-1.232533418E0,1.861737991E0
9.932469167E0,1.911093000E-1,1.265530571E0,-7.817949522E-1,1.499764561E0
9.942501167E0,6.988424040E-2,1.090200641E0,-4.901720881E-2,1.093537348E0
9.952533167E0,-1.181561576E-1,8.569188094E-1,1.016969381E0,1.335102036E0
9.962565167E0,-8.678658569E-2,4.202257942E-1,1.085692876E0,1.167411945E0
9.972597167E0,-1.024961538E-1,3.268016137E-1,1.170796176E0,1.219864108E0
9.982629167E0,2.878722406E-1,2.943578991E-1,1.097783749E0,1.172453052E0
9.992661167E0,8.270579562E-1,-9.977308720E-2,1.030734896E0,1.325290141E0
1.000269217E1,9.409076303E-1,-2.090419064E-1,8.397151315E-1,1.278329844E0
1.001272417E1,5.188215080E-1,3.003597736E-2,7.719511646E-1,9.305839659E-1
1.002275617E1,-8.155206688E-2,4.676607464E-1,7.000953162E-1,8.458668720E-1
1.003278817E1,-3.641819132E-1,7.152781963E-1,6.970383918E-1,1.063068146E0
1.004282017E1,-3.854581768E-1,7.235337339E-1,7.238525534E-1,1.093636864E0
1.005285217E1,-2.217625789E-1,6.154311419E-1,6.715655816E-1,9.375150463E-1
1.006288417E1,-1.030368568E-1,5.220404367E-1,6.922536153E-1,8.731310779E-1
1.007291617E1,-1.778593632E-1,5.321980736E-1,7.667746246E-1,9.501642319E-1
1.008294817E1,-3.179379291E-1,6.036427166E-1,9.220404196E-1,1.147008104E0
1.009298017E1,-3.129610350E-1,5.862440340E-1,1.166068702E0,1.342141161E0
1.010301117E1,-1.222407575E-1,4.907227497E-1,1.288743871E0,1.384417706E0
1.011304317E1,9.573902003E-4,4.309107037E-1,1.438252498E0,1.501417730E0
1.012307517E1,4.146968680E-2,4.027664468E-1,1.687342131E0,1.735241773E0
1.013310717E1,-2.111159595E-2,4.134469709E-1,2.051938831E0,2.093283799E0
1.014313917E1,-1.755093855E-1,4.444839916E-1,2.638931454E0,2.681851745E0
1.015317117E1,-3.259086708E-1,4.133235946E-1,3.297357758E0,3.339104826E0
1.016320317E1,-3.716812962E-1,3.030003762E-1,3.872103973E0,3.901684943E0
1.017323517E1,-4.068771125E-1,5.933301285E-2,4.054749940E0,4.075544929E0
1.018326717E1,-4.088797107E-1,-1.672648662E-1,3.799418989E0,3.825015661E0
1.019329817E1,-1.973819006E-1,-4.429773103E-1,3.329448447E0,3.364582511E0
1.020333017E1,1.869531540E-1,-6.159781489E-1,2.611456558E0,2.689625608E0
1.021336217E1,1.980954437E-1,-7.317166199E-1,1.484265992E0,1.666642299E0
1.022339417E1,4.076497489E-1,-7.539269762E-1,3.394191742E-1,9.218403219E-1
1.023342617E1,6.410260127E-1,-7.322123176E-1,-7.207389110E-1,1.210997029E0
1.024345817E1,4.641070280E-1,-5.539925466E-1,-1.746545189E0,1.890164853E0
1.025349017E1,-6.146342395E-1,3.359261937E-1,-2.508701098E0,2.604650237E0
1.026352217E1,-1.526851264E0,1.187084034E0,-3.292189988E0,3.818240197E0
1.027355417E1,-1.751517076E0,9.614195167E-1,-3.927882902E0,4.406858705E0
1.028358617E1,-1.645507349E0,2.355800794E-1,-3.634938567E0,3.996995221E0
1.029361717E1,-1.424141412E0,-4.626914902E-1,-2.702136932E0,3.089305128E0
1.030364917E1,-1.105241068E0,-7.083201559E-1,-1.831602881E0,2.253451658E0
1.031368117E1,-9.233678106E-1,-7.751282492E-1,-1.175886177E0,1.684084386E0
1.032371317E1,-8.614447005E-1,-8.283838123E-1,-7.643901300E-1,1.418660983E0
1.033374517E1,-7.156480327E-1,-9.148958530E-1,-4.322665268E-1,1.239371163E0
1.034377717E1,-4.826429209E-1,-9.772776040E-1,-7.113430202E-2,1.092280089E0
1.035380925E1,-2.952763505E-1,-9.419915579E-1,2.637088412E-1,1.021801630E0
1.036384125E1,-3.435249428E-1,-8.053348191E-1,5.715711772E-1,1.045594170E0
1.037387325E1,-5.402658425E-1,-6.008046243E-1,8.566556847E-1,1.177587508E0
1.038390425E1,-6.537948699E-1,-4.022723570E-1,1.137499207E0,1.372288318E0
1.039393625E1,-5.312481568E-1,-3.222385928E-1,1.355326116E0,1.490963177E0
1.040396825E1,-2.175363759E-1,-4.293788794E-1,1.336360672E0,1.420404218E0
1.041400025E1,1.465479619E-1,-6.719824880E-1,1.071938471E0,1.273612521E0
1.042403225E1,3.764318665E-1,-8.699870440E-1,6.040395963E-1,1.124029466E0
1.043406425E1,4.483544098E-1,-9.566655841E-1,1.442683518E-2,1.056616700E0
1.044409625E1,4.887187262E-1,-9.023091365E-1,-5.379619664E-1,1.158624550E0
1.045412825E1,5.885817508E-1,-7.437985754E-1,-1.058988057E0,1.421661178E0
1.046416025E1,5.899368796E-1,-5.725988254E-1,-1.510400707E0,1.719652649E0
1.047419225E1,5.058267290E-1,-3.795452531E-1,-1.879289263E0,1.982837213E0
1.048422325E1,4.400590746E-1,-2.549709083E-1,-2.121143551E0,2.181263881E0
1.049425525E1,4.229708792E-1,-1.901650478E-1,-2.280989470E0,2.327655489E0
1.050428725E1,4.618301953E-1,-1.859661622E-1,-2.340755616E0,2.393116670E0
1.051431925E1,4.786479570E-1,-2.546718232E-1,-2.348853425E0,2.410616937E0
1.052435125E1,5.133224209E-1,-3.269808309E-1,-2.266026446E0,2.346335915E0
1.053438325E1,4.962853156E-1,-3.581301181E-1,-2.200130664E0,2.283666183E0
1.054441525E1,4.265260959E-1,-3.559284952E-1,-2.135076297E0,2.206164182E0
1.055444725E1,3.198212808E-1,-3.096733649E-1,-2.039041042E0,2.087072499E0
1.056447925E1,2.045239822E-1,-2.739239269E-1,-1.855547229E0,1.886774999E0
1.057451025E1,1.610712579E-1,-2.600044839E-1,-1.594101845E0,1.623178048E0
1.058454225E1,1.651956645E-1,-2.953960723E-1,-1.320441628E0,1.363126751E0
1.059457425E1,1.886192815E-1,-3.567279558E-1,-1.019248626E0,1.096220703E0
1.060460625E1,1.700165476E-1,-3.913004954E-1,-7.210885745E-1,8.378486955E-1
1.061463825E1,9.064967662E-2,-4.249668628E-1,-5.052842170E-1,6.664280444E-1
1.062467025E1,-4.437698638E-2,-4.707685415E-1,-2.130111426E-1,5.186194014E-1
1.063470225E1,-1.215287585E-1,-5.453008068E-1,1.780751985E-1,5.863727358E-1
1.064473425E1,-1.569610855E-1,-6.084899122E-1,6.593992800E-1,9.108809834E-1
1.065476625E1,-1.129404778E-1,-5.797834454E-1,1.212520738E0,1.348744206E0
1.066479825E1,-7.422526812E-2,-5.051128936E-1,1.861304982E0,1.930053021E0
1.067482925E1,-2.921686468E-2,-4.134877552E-1,2.406584154E0,2.442022326E0
1.068486125E1,4.931491432E-2,-3.641596207E-1,2.757411246E0,2.781790965E0
1.069489325E1,1.807639858E-1,-3.943075722E-1,2.878288397E0,2.910789957E0
1.070492525E1,2.962366826E-1,-4.595116282E-1,2.825212051E0,2.877625799E0
1.071495725E1,3.036106611E-1,-4.332093173E-1,2.656462576E0,2.708623851E0
1.072498925E1,1.978845419E-1,-2.629330619E-1,2.485743175E0,2.507431199E0
1.073502125E1,7.737540074E-2,-6.729019627E-2,2.375457087E0,2.377669299E0
1.074505325E1,1.717868105E-2,6.151080832E-2,2.271190706E0,2.272088447E0
1.075508525E1,1.332811595E-1,1.284745838E-1,2.159855043E0,2.167773833E0
1.076511625E1,4.251499172E-1,1.578411280E-1,2.127818733E0,2.175609991E0
1.077514825E1,8.066371402E-1,2.031999533E-1,2.260358739E0,2.408562918E0
1.078518025E1,1.137739893E0,2.864148952E-1,2.535542157E0,2.793825260E0
1.079521225E1,1.341688070E0,4.270720797E-1,2.862315558E0,3.189885232E0
1.080524425E1,1.377145294E0,6.239205681E-1,3.157306418E0,3.500627065E0
1.081527625E1,1.219339614E0,8.510282513E-1,3.223844224E0,3.550240803E0
1.082530825E1,9.197690687E-1,9.385123184E-1,3.020055894E0,3.293557061E0
1.083534025E1,6.865596697E-1,8.514684004E-1,2.503296517E0,2.731822847E0
1.084537225E1,7.169875567E-1,5.420448578E-1,1.700114204E0,1.923089205E0
1.085540425E1,9.778968242E-1,1.744934866E-1,7.759711254E-1,1.260500441E0
1.086543525E1,1.370941252E0,-9.761919223E-2,-1.063842416E-1,1.378523496E0
1.087546725E1,1.827730416E0,-3.016180944E-1,-8.855497009E-1,2.053234088E0
1.088549925E1,2.145962058E0,-3.613228440E-1,-1.502260798E0,2.644332592E0
1.089553125E1,2.390713495E0,-2.937119280E-1,-1.927289057E0,3.084837244E0
1.090556325E1,2.513340864E0,-1.437682687E-1,-2.179895790E0,3.330089678E0
1.091559525E1,2.477412647E0,4.146567598E-2,-2.306340074E0,3.385040231E0
1.092562725E1,2.350378963E0,1.800902952E-1,-2.372125928E0,3.344203224E0
1.093565925E1,2.044445624E0,3.021956532E-1,-2.448875896E0,3.204383447E0
1.094569125E1,1.657346791E0,3.286931880E-1,-2.590545745E0,3.092857070E0
1.095572225E1,1.244226680E0,2.659715675E-1,-2.639399232E0,2.930063004E0
1.096575425E1,9.487413644E-1,1.479080974E-1,-2.484178460E0,2.663293000E0
1.097578625E1,8.016580168E-1,-1.558546096E-2,-2.269837661E0,2.407293395E0
1.098581825E1,6.796106194E-1,-1.772153655E-1,-2.050732550E0,2.167666919E0
1.099585025E1,5.420265853E-1,-2.841343349E-1,-1.799656034E0,1.900864798E0
1.100588225E1,4.284938667E-1,-2.286433813E-1,-1.538732221E0,1.613561786E0
1.101591425E1,3.383747153E-1,-1.231391457E-1,-1.281598574E0,1.331223348E0
1.102594625E1,2.618981595E-1,-2.178234011E-3,-1.055706015E0,1.087708868E0
1.103597825E1,1.673568868E-1,9.867936552E-2,-9.292020893E-1,9.492957745E-1
1.104601025E1,1.974864196E-1,1.297959083E-1,-8.212151259E-1,8.545420685E-1
1.105604125E1,2.142639086E-1,1.088799063E-1,-7.398212993E-1,7.778813608E-1
1.106607325E1,2.182453142E-1,8.601692766E-2,-7.096905971E-1,7.474561342E-1
1.107610525E1,2.404509928E-1,2.172949590E-2,-7.492926192E-1,7.872282262E-1
1.108613725E1,1.701277361E-1,-5.896039903E-2,-8.056931072E-1,8.255671737E-1
1.109616925E1,1.400620841E-1,-4.734907128E-2,-8.097627693E-1,8.231494789E-1
1.110620125E1,5.012401365E-2,3.501758583E-2,-7.931543380E-1,7.955076693E-1
1.111623325E1,8.853780851E-3,1.304667301E-1,-8.288878423E-1,8.391394474E-1
1.112626525E1,4.951144472E-2,2.574694967E-1,-6.651886082E-1,7.149949715E-1
1.113629725E1,9.184528604E-2,3.502975535E-1,-5.067553765E-1,6.228522651E-1
1.114632925E1,1.685910147E-1,3.820186984E-1,-3.961541229E-1,5.755860538E-1
1.115636025E1,2.185828082E-1,3.899654299E-1,-3.071846437E-1,5.424148651E-1
1.116639225E1,2.190657151E-1,3.957947385E-1,-1.879347736E-1,4.898599204E-1
1.117642425E1,2.345034608E-1,3.621639660E-1,-9.415303588E-2,4.416100153E-1
1.118645625E1,2.076794321E-1,3.505061529E-1,-2.681357682E-2,4.082943517E-1
1.119648825E1,1.922100384E-1,3.256079046E-1,-4.154505193E-2,3.803829620E-1
1.120652025E1,1.739554697E-1,3.095787862E-1,-1.254783243E-1,3.766222778E-1
1.121655225E1,1.000223248E-1,3.084341937E-1,-2.890027267E-1,4.343485851E-1
1.122658425E1,-1.601632766E-2,3.296198255E-1,-5.180790943E-1,6.142570309E-1
1.123661625E1,-1.548746163E-1,4.112223977E-1,-6.299538714E-1,7.680702358E-1
1.124664725E1,-2.365842656E-1,4.499594705E-1,-7.482956690E-1,9.046447082E-1
1.125667925E1,-2.934355009E-1,4.165505268E-1,-9.448504078E-1,1.073480800E0
1.126671125E1,-4.219714804E-1,4.602040847E-1,-1.100588073E0,1.265362334E0
1.127674325E1,-5.592692933E-1,5.660144220E-1,-1.158064449E0,1.405086380E0
1.128677525E1,-6.668451975E-1,6.815396158E-1,-1.164619762E0,1.505163764E0
1.129680725E1,-7.565455786E-1,7.433068246E-1,-1.074067442E0,1.509465838E0
1.130683925E1,-8.741658298E-1,7.710375372E-1,-8.168402392E-1,1.423338596E0
1.131687125E1,-9.023283593E-1,7.515277174E-1,-3.469328463E-1,1.224480616E0
1.132690325E1,-8.714765491E-1,6.534973928E-1,1.132301617E-1,1.095148980E0
1.133693525E1,-8.417375372E-1,5.059923879E-1,5.364826208E-1,1.119090694E0
1.134696679E1,-8.619186904E-1,3.636910395E-1,9.420747346E-1,1.327659522E0
1.135699879E1,-9.812009396E-1,2.331947809E-1,1.451098831E0,1.767151071E0
1.136703079E1,-1.147169478E0,1.925435489E-1,2.027027353E0,2.337073110E0
1.137706279E1,-1.282095587E0,1.358530390E-1,2.548610099E0,2.856158010E0
1.138709479E1,-1.365132628E0,6.969537534E-2,3.003442200E0,3.299865086E0
1.139712679E1,-1.382291867E0,-2.151592635E-2,3.313441694E0,3.590277092E0
1.140715879E1,-1.354000114E0,-7.125935934E-2,3.560214660E0,3.809661747E0
1.141719079E1,-1.295193643E0,-1.186315271E-1,3.795166309E0,4.011843383E0
1.142722279E1,-1.221467124E0,-1.313240051E-1,3.975473390E0,4.160963423E0
1.143725479E1,-1.123872563E0,-1.108250557E-1,4.138817698E0,4.290126300E0
1.144728579E1,-1.068622003E0,-8.726859726E-2,4.138827639E0,4.275448867E0
1.145731779E1,-1.109929950E0,-1.194782770E-1,3.759814628E0,3.922043548E0
1.146734979E1,-1.146275293E0,-2.198589630E-1,3.003807651E0,3.222599171E0
1.147738179E1,-1.083915469E0,-3.078579506E-1,2.104700012E0,2.387344005E0
1.148741379E1,-9.229999477E-1,-4.489212243E-1,1.005079653E0,1.436538993E0
1.149744579E1,-7.896663277E-1,-5.904139759E-1,-1.883505106E-1,1.003811480E0
1.150747779E1,-6.982101008E-1,-6.867836181E-1,-1.253755887E0,1.590934602E0
1.151750979E1,-7.278101682E-1,-7.247989252E-1,-2.114177179E0,2.350486389E0
1.152754179E1,-8.064102682E-1,-6.465415451E-1,-2.617253487E0,2.813952613E0
1.153757379E1,-9.493936944E-1,-4.611209281E-1,-2.802270500E0,2.994444999E0
1.154760479E1,-1.068117973E0,-2.084324804E-1,-2.654586205E0,2.868997738E0
1.155763679E1,-1.117991872E0,-7.267986730E-2,-2.337147299E0,2.591803559E0
1.156766879E1,-1.101617256E0,-6.141579106E-2,-1.887608682E0,2.186412362E0
1.157770079E1,-1.005462645E0,-1.076299909E-1,-1.289958923E0,1.639064785E0
1.158773279E1,-8.472092886E-1,-2.268013622E-1,-6.601915777E-1,1.097750134E0
1.159776479E1,-6.307893654E-1,-3.533861259E-1,-1.067321509E-1,7.308684762E-1
1.160779679E1,-4.149089575E-1,-5.024885170E-1,4.593812352E-1,7.972924633E-1
1.161782879E1,-2.516977832E-1,-5.645555417E-1,1.012122039E0,1.185945090E0
1.162786079E1,-1.462848007E-1,-5.688947605E-1,1.517698617E0,1.627405783E0
1.163789279E1,-6.774569437E-2,-5.461287725E-1,1.904276755E0,1.982199807E0
1.164792379E1,3.588078104E-2,-5.449290700E-1,2.058974785E0,2.130167197E0
1.165795579E1,1.659563690E-1,-6.094851083E-1,1.959751629E0,2.059038625E0
1.166798779E1,2.599996965E-1,-7.003797832E-1,1.722749360E0,1.877763841E0
1.167801979E1,3.931621027E-1,-7.913248904E-1,1.273192032E0,1.549770780E0
1.168805179E1,4.085104591E-1,-8.452425045E-1,5.171102107E-1,1.071782933E0
1.169808379E1,4.384852234E-1,-8.988103089E-1,-3.500885886E-1,1.059571273E0
1.170811579E1,4.678091561E-1,-8.522407445E-1,-1.207034295E0,1.549868215E0
1.171814779E1,3.866772116E-1,-7.072730657E-1,-1.928336878E0,2.090032911E0
1.172817979E1,2.569929486E-1,-5.084709495E-1,-2.396532206E0,2.463321882E0
1.173821179E1,1.790866207E-1,-3.697685623E-1,-2.706538716E0,2.737545000E0
1.174824279E1,1.990957926E-1,-2.846231622E-1,-2.945065938E0,2.965478521E0
1.175827479E1,2.457150583E-1,-2.569506294E-1,-3.010133169E0,3.031056122E0
1.176830679E1,2.781034802E-1,-2.518670601E-1,-2.991975811E0,3.015410057E0
1.177833879E1,2.665173685E-1,-2.236067359E-1,-2.934245081E0,2.954797062E0
1.178837079E1,2.188639131E-1,-1.560715413E-1,-2.728972728E0,2.742180134E0
1.179840279E1,2.505341142E-1,-1.527048607E-1,-2.529759845E0,2.546717690E0
1.180843479E1,3.012736569E-1,-1.339945015E-1,-2.184778799E0,2.209520026E0
1.181846679E1,3.550337981E-1,-1.322732274E-1,-1.756252152E0,1.796654342E0
1.182849879E1,3.544676780E-1,-1.681268920E-1,-1.484097592E0,1.535076431E0
1.183853079E1,3.310314895E-1,-2.099531950E-1,-1.209511176E0,1.271447787E0
1.184856179E1,3.511872804E-1,-2.457812780E-1,-8.950116652E-1,9.923642595E-1
1.185859379E1,3.667232228E-1,-2.919219491E-1,-5.498405850E-1,7.225157544E-1
1.186862579E1,3.812773080E-1,-3.091343978E-1,-2.055647135E-1,5.321591049E-1
1.187865779E1,3.125190951E-1,-2.786992018E-1,1.415920812E-1,4.420291250E-1
1.188868979E1,2.342510438E-1,-2.420957780E-1,4.336909086E-1,5.491554620E-1
1.189872179E1,2.151100372E-1,-2.826076269E-1,6.987142038E-1,7.837990416E-1
1.190875379E1,2.085591274E-1,-3.352881163E-1,1.039973497E0,1.112411751E0
1.191878579E1,2.504539708E-1,-4.481124812E-1,1.439096251E0,1.527916885E0
1.192881779E1,3.092601129E-1,-5.953142349E-1,1.834258102E0,1.953085671E0
1.193884979E1,3.968022137E-1,-7.324693027E-1,2.134230790E0,2.291048742E0
1.194888079E1,4.501035313E-1,-8.428292124E-1,2.293501927E0,2.484573477E0
1.195891279E1,4.881391574E-1,-9.295372809E-1,2.298507144E0,2.526945683E0
1.196894479E1,5.649246472E-1,-9.904588361E-1,2.150740988E0,2.434303876E0
1.197897679E1,6.685857674E-1,-1.010958443E0,1.876637551E0,2.234012623E0
1.198900879E1,7.625067419E-1,-9.223295644E-1,1.794570710E0,2.156986878E0
1.199904079E1,8.272478445E-1,-7.645463969E-1,1.822856031E0,2.142819241E0
1.200907279E1,8.512942265E-1,-6.432714897E-1,1.752142729E0,2.051463919E0
1.201910479E1,8.257606052E-1,-5.663231550E-1,1.634293267E0,1.916642109E0
1.202913679E1,7.996757376E-1,-5.702766037E-1,1.545076450E0,1.830835308E0
1.203916879E1,8.025402886E-1,-5.889024706E-1,1.491318904E0,1.793016761E0
1.204919979E1,7.163027016E-1,-5.587285721E-1,1.494614979E0,1.749040055E0
1.205923179E1,5.836616478E-1,-5.008231569E-1,1.647287534E0,1.817977165E0
1.206926379E1,4.288968495E-1,-3.764218166E-1,1.943871176E0,2.025902525E0
1.207929579E1,2.425663692E-1,-1.977306870E-1,2.392353786E0,2.412735482E0
1.208932779E1,1.791405978E-2,-1.377071180E-1,2.808870252E0,2.812300883E0
1.209935979E1,-1.101368567E-1,-1.447114976E-1,3.068173217E0,3.073557943E0
1.210939179E1,-1.515634659E-1,-2.050404375E-1,3.027383040E0,3.038101568E0
1.211942379E1,-6.269362696E-2,-3.652382127E-1,2.634398693E0,2.660335677E0
1.212945579E1,1.723358640E-1,-5.991320282E-1,1.895647434E0,1.995529512E0
1.213948779E1,4.422307670E-1,-6.680262619E-1,9.682451177E-1,1.256712276E0
1.214951879E1,8.029343178E-1,-5.852362664E-1,9.084818959E-3,9.936234398E-1
1.215955079E1,1.097856108E0,-3.503465970E-1,-8.462757075E-1,1.429759891E0
1.216958279E1,1.321242404E0,3.818875015E-2,-1.513382787E0,2.009345000E0
1.217961479E1,1.453424122E0,5.245655568E-1,-1.906054893E0,2.453702500E0
1.218964679E1,1.643357620E0,9.356965917E-1,-2.001980220E0,2.753920330E0
1.219967879E1,1.860605363E0,1.219657557E0,-1.887117516E0,2.917298303E0
1.220971079E1,2.161872771E0,1.330583915E0,-1.671210832E0,3.039258639E0
1.221974279E1,2.443995663E0,1.283147794E0,-1.465897549E0,3.125450157E0
1.222977479E1,2.631493504E0,1.188911581E0,-1.402041861E0,3.209982895E0
1.223980679E1,2.534469777E0,1.096088348E0,-1.350659453E0,3.073959609E0
1.224983779E1,2.193432971E0,9.171927854E-1,-1.162549848E0,2.646490686E0
1.225986979E1,1.759391083E0,4.988394159E-1,-9.301721424E-1,2.051710984E0
1.226990179E1,1.357334927E0,3.316116795E-2,-4.970817429E-1,1.445872756E0
1.227993379E1,9.353714865E-1,-2.642331903E-1,1.405746657E-1,9.820897277E-1
1.228996579E1,3.862542021E-1,-4.237930343E-1,7.214546102E-1,9.215690963E-1
1.229999779E1,-6.753877603E-2,-5.678362682E-1,1.084113543E0,1.225684171E0
1.231002979E1,-3.340224134E-1,-6.770096317E-1,1.068770449E0,1.308504217E0
1.232006179E1,-3.857308032E-1,-7.243662313E-1,7.416321820E-1,1.106125211E0
1.233009379E1,-3.636791258E-1,-6.502440020E-1,1.274944443E-1,7.558667885E-1
1.234012579E1,-3.775201430E-1,-5.174683526E-1,-5.923054039E-1,8.724222864E-1
1.235015687E1,-3.500305550E-1,-3.516427785E-1,-1.258310868E0,1.352597602E0
1.236018787E1,-3.790442198E-1,-1.680185723E-1,-1.852830613E0,1.898653744E0
1.237021987E1,-4.604008069E-1,2.332278907E-2,-2.268362993E0,2.314731847E0
1.238025187E1,-5.433600793E-1,1.547648348E-1,-2.524648209E0,2.587091206E0
1.239028387E1,-5.658379458E-1,2.510904036E-1,-2.604594265E0,2.677149652E0
1.240031587E1,-5.482471822E-1,2.936255354E-1,-2.452298856E0,2.529932925E0
1.241034787E1,-4.763151007E-1,2.655770266E-1,-2.193951327E0,2.260714413E0
1.242037987E1,-3.635459554E-1,2.322217311E-1,-1.808862475E0,1.859590290E0
1.243041187E1,-2.637048212E-1,1.523823868E-1,-1.455657905E0,1.487178725E0
1.244044387E1,-1.806914986E-1,1.258787124E-1,-1.196561347E0,1.216656864E0
1.245047587E1,-6.206139676E-2,1.639790234E-1,-1.007493968E0,1.022636217E0
1.246050687E1,7.455547135E-2,2.119557202E-1,-8.786154878E-1,9.068896962E-1
1.247053887E1,1.279728927E-1,2.923343240E-1,-8.323651814E-1,8.914416490E-1
1.248057087E1,1.195307558E-1,3.928213562E-1,-7.860996723E-1,8.868759295E-1
1.249060287E1,8.615726084E-2,4.252791041E-1,-7.628318471E-1,8.776091481E-1
1.250063487E1,4.038575007E-2,4.037359151E-1,-7.534920895E-1,8.557943836E-1
1.251066687E1,-4.799663214E-2,2.881363155E-1,-7.625535196E-1,8.165868498E-1
1.252069887E1,-1.199443184E-1,2.166690145E-1,-7.809827739E-1,8.193083635E-1
1.253073087E1,-2.039294117E-1,1.429110669E-1,-8.193609738E-1,8.563662671E-1
1.254076287E1,-2.635103282E-1,1.256908706E-1,-8.776477736E-1,9.249332422E-1
1.255079487E1,-2.519900160E-1,1.980960649E-1,-8.746159923E-1,9.315010215E-1
1.256082587E1,-2.011817137E-1,3.454833215E-1,-7.310077912E-1,8.331897732E-1
1.257085787E1,-1.397400670E-1,5.204097944E-1,-4.778631145E-1,7.202130217E-1
1.258088987E1,-1.452589067E-2,6.184899665E-1,-1.638892686E-1,6.400004161E-1
1.259092187E1,1.525236336E-1,6.502078955E-1,2.730667251E-1,7.215256077E-1
1.260095387E1,2.893158816E-1,5.853852242E-1,6.332938010E-1,9.096376083E-1
1.261098587E1,4.477699075E-1,4.983017644E-1,8.014047593E-1,1.044534407E0
1.262101787E1,5.807752063E-1,4.203884929E-1,8.457143748E-1,1.108719590E0
1.263104987E1,6.068533130E-1,3.446519937E-1,8.187417537E-1,1.075822476E0
1.264108187E1,5.364720958E-1,2.740173362E-1,7.727767915E-1,9.798325263E-1
1.265111387E1,3.971567743E-1,2.085307136E-1,7.760085475E-1,8.963302002E-1
1.266114487E1,2.255301592E-1,2.300638162E-1,8.374873424E-1,8.973172576E-1
1.267117687E1,1.806595948E-2,2.441417187E-1,9.571950495E-1,9.880050205E-1
1.268120887E1,-8.784290347E-2,2.268177344E-1,1.127742543E0,1.153674955E0
1.269124087E1,-1.398385195E-1,1.757328039E-1,1.339895899E0,1.358586710E0
1.270127287E1,-1.626639115E-1,8.980665430E-2,1.642238463E0,1.652716537E0
1.271130487E1,-1.995899006E-1,1.318093970E-2,1.969249846E0,1.979382434E0
1.272133687E1,-2.565232162E-1,-8.167800128E-2,2.244382977E0,2.260471279E0
1.273136887E1,-3.555693666E-1,-2.003867117E-1,2.429154407E0,2.463204324E0
1.274140087E1,-4.247267615E-1,-3.338223656E-1,2.514703850E0,2.572074191E0
1.275143287E1,-4.849060126E-1,-5.092353268E-1,2.417961667E0,2.518132856E0
1.276146487E1,-5.502281092E-1,-6.758220622E-1,2.124006933E0,2.295842304E0
1.277149587E1,-6.466635326E-1,-7.753533670E-1,1.673519313E0,1.954485472E0
1.278152787E1,-6.902621267E-1,-7.918102093E-1,1.139458609E0,1.549771316E0
1.279155987E1,-6.425190262E-1,-8.371638452E-1,4.918063849E-1,1.164279830E0
1.280159187E1,-5.716393704E-1,-8.900305684E-1,-2.002244514E-1,1.076575967E0
1.281162387E1,-4.750957735E-1,-9.243168868E-1,-8.361682105E-1,1.333887168E0
1.282165587E1,-5.284372906E-1,-8.161971916E-1,-1.305589115E0,1.627877994E0
1.283168787E1,-6.582761760E-1,-5.914477636E-1,-1.585921590E0,1.816118188E0
1.284171987E1,-8.246929036E-1,-3.051177992E-1,-1.728079682E0,1.938936472E0
1.285175187E1,-9.816792418E-1,-6.699812785E-2,-1.789420483E0,2.042108848E0
1.286178387E1,-1.035538895E0,-6.822969764E-3,-1.755131240E0,2.037859914E0
1.287181587E1,-9.323960578E-1,-7.362770095E-2,-1.547621158E0,1.808290545E0
1.288184687E1,-7.369522899E-1,-2.187545702E-1,-1.162539323E0,1.393718019E0
1.289187887E1,-5.224691107E-1,-3.180063781E-1,-7.102577770E-1,9.373196562E-1
1.290191087E1,-3.649680714E-1,-3.959560485E-1,-2.265638191E-1,5.842208911E-1
1.291194287E1,-2.459569868E-1,-4.030032590E-1,2.517126936E-1,5.350380793E-1
1.292197487E1,-1.826829689E-1,-3.245173989E-1,6.819654393E-1,7.770208940E-1
1.293200687E1,-1.614176506E-1,-2.182204270E-1,1.037797748E0,1.072706846E0
1.294203887E1,-1.199024560E-1,-1.278096092E-1,1.223881878E0,1.236365134E0
1.295207087E1,-9.815925568E-2,-1.171628527E-1,1.244112659E0,1.253466666E0
1.296210287E1,-3.170458999E-2,-1.975285926E-1,1.103788254E0,1.121771472E0
1.297213487E1,5.589221880E-2,-3.219690362E-1,7.916434175E-1,8.564387315E-1
1.298216587E1,1.104211958E-1,-3.608138439E-1,4.065808779E-1,5.546958452E-1
1.299219787E1,8.698091425E-2,-2.620545177E-1,7.870586157E-2,2.871112369E-1
1.300222987E1,1.261745084E-2,-8.203058839E-2,-2.825321978E-1,2.944701348E-1
1.301226187E1,-7.506129205E-2,1.099104050E-1,-6.977295327E-1,7.103104923E-1
1.302229387E1,-1.459130639E-1,2.264831275E-1,-9.913889819E-1,1.027344802E0
1.303232587E1,-2.595824794E-1,2.749254088E-1,-1.231293224E0,1.288041166E0
1.304235787E1,-3.220413589E-1,2.564819750E-1,-1.398425943E0,1.457768417E0
1.305238987E1,-3.274440034E-1,2.078796262E-1,-1.494477569E0,1.543987280E0
1.306242187E1,-2.950620135E-1,1.153401294E-1,-1.501022358E0,1.534090303E0
1.307245387E1,-2.655214598E-1,5.919823453E-2,-1.413594205E0,1.439532790E0
1.308248587E1,-2.301184694E-1,5.818608150E-2,-1.283720528E0,1.305480190E0
1.309251687E1,-2.048111170E-1,1.361268349E-1,-1.119640641E0,1.146330351E0
1.310254887E1,-1.746706938E-1,2.378862213E-1,-9.884454936E-1,1.031563958E0
1.311258087E1,-1.173205448E-1,2.877189705E-1,-8.367926931E-1,8.926188030E-1
1.312261287E1,7.415987067E-3,2.929982753E-1,-6.620755506E-1,7.240490459E-1
1.313264487E1,1.020620346E-1,3.046191779E-1,-4.782537085E-1,5.761389694E-1
1.314267687E1,1.570090875E-1,3.035133232E-1,-3.225265682E-1,4.698888998E-1
1.315270887E1,1.268531874E-1,2.956890178E-1,-1.693458903E-1,3.635955953E-1
1.316274087E1,9.008492695E-2,2.491255930E-1,-4.524224639E-2,2.687484251E-1
1.317277287E1,6.532639062E-2,1.724816059E-1,5.322428048E-2,1.919642303E-1
1.318280487E1,5.301710632E-2,8.192665413E-2,1.827757752E-1,2.071950149E-1
1.319283587E1,4.972294947E-2,2.494217545E-2,3.182095689E-1,3.230353131E-1
1.320286787E1,1.175456626E-1,-2.914690822E-3,4.372331518E-1,4.527673876E-1
1.321289987E1,2.599733109E-1,-3.367162988E-2,5.649310791E-1,6.227897119E-1
1.322293187E1,4.037020013E-1,-9.206733406E-2,7.061857760E-1,8.186269297E-1
1.323296387E1,4.448593097E-1,-1.150084461E-1,9.762177962E-1,1.078947605E0
1.324299587E1,4.102457665E-1,-7.909002364E-2,1.398459857E0,1.459536499E0
1.325302787E1,3.555598648E-1,-1.715339184E-2,1.888371744E0,1.921630791E0
1.326305987E1,3.621338528E-1,-4.986827105E-2,2.337460710E0,2.365872005E0
1.327309187E1,4.617234837E-1,-2.339456365E-1,2.530732237E0,2.583123069E0
1.328312387E1,6.140607007E-1,-5.574621382E-1,2.384844791E0,2.524939456E0
1.329315587E1,6.122596486E-1,-8.179039939E-1,2.030283667E0,2.272857363E0
1.330318687E1,4.927421222E-1,-8.920278311E-1,1.678944359E0,1.964016958E0
1.331321887E1,3.730692790E-1,-7.727168575E-1,1.280236173E0,1.541193267E0
1.332325087E1,4.204226992E-1,-5.511993317E-1,8.831687146E-1,1.122747936E0
1.333328287E1,5.716005595E-1,-3.303684153E-1,5.793292630E-1,8.783466766E-1
1.334331487E1,7.535135049E-1,-1.647830155E-1,3.283878171E-1,8.383165290E-1
1.335334637E1,9.146034191E-1,-7.076329619E-2,1.482713556E-1,9.292423006E-1
1.336337837E1,9.445408709E-1,-2.273762897E-2,4.430786133E-2,9.458528654E-1
1.337341037E1,8.532713163E-1,-1.863873079E-2,1.088061583E-1,8.603825437E-1
1.338344237E1,7.498598722E-1,-3.573759735E-2,4.399006516E-1,8.701032049E-1
1.339347437E1,6.849380176E-1,-6.225720540E-2,8.972950029E-1,1.130554895E0
1.340350537E1,6.490666652E-1,-7.601263404E-2,1.380324717E0,1.527207183E0
1.341353737E1,6.483733316E-1,-1.239938624E-1,1.704748122E0,1.828094258E0
1.342356937E1,6.627956352E-1,-2.414796276E-1,1.691590133E0,1.832781395E0
1.343360137E1,6.488158927E-1,-2.885510293E-1,1.445566195E0,1.610554372E0
1.344363337E1,5.679760167E-1,-1.942468429E-1,1.072016823E0,1.228636912E0
1.345366537E1,5.399052885E-1,-3.548792124E-2,6.594185758E-1,8.529888459E-1
1.346369737E1,6.142836258E-1,2.263822630E-2,2.831508332E-1,6.767800651E-1
1.347372937E1,7.474413908E-1,-1.628873482E-2,-1.708474553E-1,7.668916537E-1
1.348376137E1,8.296973893E-1,1.129989043E-2,-6.166672432E-1,1.033829741E0
1.349379337E1,9.054956498E-1,3.400404409E-2,-1.062410433E0,1.396350448E0
1.350382537E1,9.239178143E-1,1.452512687E-1,-1.423180715E0,1.702987201E0
1.351385637E1,8.959138906E-1,3.109832874E-1,-1.619719666E0,1.876929434E0
1.352388837E1,9.011950958E-1,4.812012899E-1,-1.565316587E0,1.869203921E0
1.353392037E1,8.764550878E-1,5.447445904E-1,-1.369060056E0,1.714422826E0
1.354395237E1,7.981637938E-1,5.391154759E-1,-1.086956459E0,1.452303440E0
1.355398437E1,7.141926607E-1,4.646254568E-1,-7.592352247E-1,1.141221319E0
1.356401637E1,6.415118433E-1,2.544962606E-1,-4.585409904E-1,8.285925606E-1
1.357404837E1,5.268430107E-1,-3.321715504E-2,-2.349598360E-1,5.778174988E-1
1.358408037E1,4.240245840E-1,-2.942057253E-1,-7.405030847E-2,5.213801922E-1
1.359411237E1,3.100572346E-1,-4.579821427E-1,4.208767354E-2,5.546661194E-1
1.360414437E1,1.366390144E-1,-5.257412857E-1,8.485011578E-2,5.497941996E-1
1.361417637E1,-3.529711928E-2,-5.072519512E-1,3.743504405E-2,5.098546962E-1
1.362420737E1,-1.844111318E-1,-4.840456679E-1,-1.047376657E-1,5.284672675E-1
1.363423937E1,-3.040301440E-1,-4.621294266E-1,-3.273464280E-1,6.427702695E-1
1.364427137E1,-3.459577135E-1,-3.864828283E-1,-6.018843126E-1,7.945567581E-1
1.365430337E1,-3.282360088E-1,-2.716473135E-1,-8.703054249E-1,9.690008633E-1
1.366433537E1,-2.555342693E-1,-1.235317862E-1,-1.093673741E0,1.129902702E0
1.367436737E1,-1.224891728E-1,7.215025574E-2,-1.258935351E0,1.266936255E0
1.368439937E1,-3.501591389E-2,3.065931979E-1,-1.364036129E0,1.398506369E0
1.369443137E1,-5.218640883E-2,5.105465649E-1,-1.471451819E0,1.558381106E0
1.370446337E1,-1.701105965E-1,6.869555993E-1,-1.495464579E0,1.654466657E0
1.371449537E1,-2.797501840E-1,7.431467570E-1,-1.503783413E0,1.700556327E0
1.372452737E1,-3.222330014E-1,7.369735591E-1,-1.452827852E0,1.660624251E0
1.373455837E1,-2.828904129E-1,7.149644932E-1,-1.316843836E0,1.524886520E0
1.374459037E1,-2.019043382E-1,7.109082797E-1,-1.168250883E0,1.382376964E0
1.375462237E1,-8.208290270E-2,7.280923694E-1,-1.005314711E0,1.243991065E0
1.376465437E1,4.620579444E-2,7.239203811E-1,-8.329539961E-1,1.104539747E0
1.377468637E1,1.896718717E-1,7.429776263E-1,-6.433293772E-1,1.000931496E0
1.378471837E1,2.537725580E-1,7.786560206E-1,-3.941397572E-1,9.088739504E-1
1.379475037E1,2.889653045E-1,8.274810022E-1,-1.279247993E-1,8.857711389E-1
1.380478237E1,2.930617724E-1,8.339198099E-1,1.185464501E-1,8.918299797E-1
1.381481437E1,2.353991629E-1,8.112603875E-1,2.352019107E-1,8.768558154E-1
1.382484637E1,1.099802975E-1,7.468625164E-1,2.285787696E-1,7.887632966E-1
1.383487837E1,-3.484032383E-2,6.497067891E-1,1.519773209E-1,6.681540736E-1
1.384490937E1,-2.056409466E-1,5.849977000E-1,5.340905249E-2,6.223849571E-1
1.385494137E1,-3.335814968E-1,5.472624014E-1,-8.589442849E-2,6.466456556E-1
1.386497337E1,-4.186409429E-1,5.384310593E-1,-2.097057116E-1,7.135437829E-1
1.387500537E1,-4.337053439E-1,5.280943514E-1,-3.125629127E-1,7.514516243E-1
1.388503737E1,-4.317700982E-1,6.057602857E-1,-3.686996913E-1,8.302471944E-1
1.389506937E1,-4.119889311E-1,6.884150644E-1,-3.655848795E-1,8.816475965E-1
1.390510137E1,-3.701253156E-1,7.600352700E-1,-1.910554326E-1,8.666882595E-1
1.391513337E1,-3.323960835E-1,7.698128378E-1,4.342142344E-3,8.385212077E-1
1.392516537E1,-2.708899529E-1,6.941261861E-1,1.669046777E-1,7.635769118E-1
1.393519737E1,-2.011184176E-1,5.900054017E-1,2.853417850E-1,6.855471728E-1
1.394522937E1,-9.449447673E-2,5.066255683E-1,3.882469332E-1,6.452397645E-1
1.395526037E1,2.680647793E-2,4.302262871E-1,5.342858219E-1,6.864944172E-1
1.396529237E1,1.363315423E-1,3.749472950E-1,6.921197140E-1,7.988751229E-1
1.397532437E1,2.254132880E-1,3.663540807E-1,8.777594554E-1,9.774907286E-1
1.398535637E1,2.715830307E-1,3.188717660E-1,1.042256250E0,1.123269619E0
1.399538837E1,2.685853460E-1,2.153587997E-1,1.195367346E0,1.243953613E0
1.400542037E1,1.591538280E-1,1.064000291E-1,1.423655509E0,1.436469949E0
1.401545237E1,-7.508800652E-2,7.797992975E-3,1.720858955E0,1.722514024E0
1.402548437E1,-3.212319581E-1,-1.211040223E-1,2.068749576E0,2.097041001E0
1.403551637E1,-4.332888028E-1,-2.676676986E-1,2.381841661E0,2.435683658E0
1.404554837E1,-4.609724088E-1,-5.003481437E-1,2.582779473E0,2.670878813E0
1.405558037E1,-4.900600043E-1,-7.721316974E-1,2.561890295E0,2.720225735E0
1.406561137E1,-5.311635915E-1,-9.992248356E-1,2.339399647E0,2.598725791E0
1.407564337E1,-5.759049142E-1,-1.062801027E0,1.908120714E0,2.258791082E0
1.408567537E1,-5.316560367E-1,-9.467940223E-1,1.338646933E0,1.723674179E0
1.409570737E1,-3.368163592E-1,-8.550615875E-1,6.574597585E-1,1.129968545E0
1.410573937E1,-1.169545457E-1,-7.917192851E-1,-8.801229000E-2,8.051359856E-1
1.411577137E1,-2.574931048E-2,-7.231644823E-1,-8.389006144E-1,1.107873700E0
1.412580337E1,-1.399332261E-1,-5.940814957E-1,-1.489200457E0,1.609419813E0
1.413583537E1,-3.626410623E-1,-3.837900393E-1,-1.827195250E0,1.901958416E0
1.414586737E1,-6.390556473E-1,-1.663380826E-1,-1.907838294E0,2.018887672E0
1.415589937E1,-8.629216341E-1,-3.413385227E-2,-1.809047247E0,2.004607395E0
1.416593137E1,-9.988153844E-1,-6.468233809E-2,-1.603750336E0,1.890457912E0
1.417596237E1,-1.010673392E0,-2.600141318E-1,-1.303630883E0,1.669886682E0
1.418599437E1,-8.845067038E-1,-5.058499351E-1,-8.975201207E-1,1.357858105E0
1.419602637E1,-6.845540748E-1,-6.759932394E-1,-5.341583526E-1,1.100411871E0
1.420605837E1,-4.376948626E-1,-7.024520364E-1,-1.663854450E-1,8.442154775E-1
1.421609037E1,-1.344646177E-1,-6.220455122E-1,2.275555068E-1,6.758719267E-1
1.422612237E1,2.012858672E-1,-5.070892525E-1,5.958418000E-1,8.078879631E-1
1.423615437E1,4.735408892E-1,-2.920543885E-1,8.902719122E-1,1.049819421E0
1.424618637E1,6.840351344E-1,-5.164538607E-2,1.050462817E0,1.254608880E0
1.425621837E1,7.672217173E-1,1.519665036E-1,1.078662769E0,1.332379957E0
1.426625037E1,7.034038170E-1,2.516189919E-1,9.800208253E-1,1.232286438E0
1.427628237E1,6.598248842E-1,1.748497282E-1,7.589118737E-1,1.020729414E0
1.428631337E1,5.768572795E-1,-3.146152854E-2,3.671618736E-1,6.845158801E-1
1.429634537E1,4.255853886E-1,-2.089489357E-1,-5.898320317E-2,4.777673063E-1
1.430637737E1,2.788166760E-1,-2.470678116E-1,-4.920583999E-1,6.171731615E-1
1.431640937E1,1.610155083E-1,-2.428491917E-1,-9.435903329E-1,9.875547783E-1
1.432644137E1,3.285995412E-2,-1.398810397E-1,-1.356333591E0,1.363923492E0
1.433647337E1,-1.199051238E-1,-3.685193047E-2,-1.706157886E0,1.710762998E0
1.434650537E1,-1.526572607E-1,6.206527054E-2,-1.947919788E0,1.954877960E0
1.435653804E1,-9.830965703E-2,1.550671358E-1,-2.005466330E0,2.013853472E0
1.436657004E1,-3.085771216E-2,2.285891484E-1,-1.965588319E0,1.979076208E0
1.437660204E1,5.615148799E-2,3.173414035E-1,-1.840470768E0,1.868472961E0
1.438663404E1,1.471491470E-1,3.469018561E-1,-1.624379897E0,1.667514264E0
1.439666504E1,2.371912431E-1,2.770429780E-1,-1.374683324E0,1.422240042E0
1.440669704E1,3.279769041E-1,1.809932515E-1,-1.116756794E0,1.177910499E0
1.441672904E1,3.759069693E-1,9.983287498E-2,-8.269144070E-1,9.138162228E-1
1.442676104E1,4.008314569E-1,2.091402858E-2,-5.630482757E-1,6.914670016E-1
1.443679304E1,3.924498753E-1,-5.430835426E-2,-3.250648445E-1,5.124777606E-1
1.444682504E1,3.544629637E-1,-1.130870511E-1,-1.905911636E-1,4.180402677E-1
1.445685704E1,3.331920722E-1,-1.589279062E-1,-1.228271967E-1,3.890521258E-1
1.446688904E1,3.410496337E-1,-2.058532736E-1,-4.828572214E-2,4.012753841E-1
1.447692104E1,3.845551840E-1,-2.027413854E-1,-5.836515248E-2,4.386265495E-1
1.448695304E1,4.511007373E-1,-1.479230078E-1,-8.312167883E-2,4.819567459E-1
1.449698504E1,5.651047415E-1,-4.311239809E-2,-9.921263158E-2,5.753652700E-1
1.450701604E1,6.872790235E-1,8.349736243E-2,-8.819647729E-2,6.979275637E-1
1.451704804E1,7.579088569E-1,1.285668236E-1,-7.076826632E-2,7.719866651E-1
1.452708004E1,7.437471930E-1,8.061424658E-2,-6.599752307E-3,7.481324084E-1
1.453711204E1,6.362372893E-1,-4.647951722E-2,6.664656401E-2,6.414047071E-1
1.454714404E1,5.184889110E-1,-2.083636294E-1,1.788101935E-1,5.867020012E-1
1.455717604E1,4.505286604E-1,-3.755723624E-1,2.711318815E-1,6.461758045E-1
1.456720804E1,4.799537864E-1,-5.274830250E-1,3.179388428E-1,7.808194968E-1
1.457724004E1,6.071528732E-1,-6.289749013E-1,3.928042531E-1,9.584045175E-1
1.458727204E1,7.172202028E-1,-6.553657244E-1,5.232316607E-1,1.103485579E0
1.459730404E1,8.385398412E-1,-5.554597592E-1,7.278386003E-1,1.241544859E0
1.460733604E1,9.488675181E-1,-4.189500779E-1,9.524611437E-1,1.408208424E0
1.461736804E1,9.653260414E-1,-3.436911500E-1,1.162470326E0,1.549617769E0
1.462739904E1,9.660624982E-1,-3.366326836E-1,1.256455547E0,1.620271229E0
1.463743104E1,9.785419913E-1,-3.528350258E-1,1.286969826E0,1.654789509E0
1.464746304E1,1.062519629E0,-3.926351224E-1,1.348914644E0,1.761442880E0
1.465749504E1,1.088145491E0,-3.605650449E-1,1.539582991E0,1.919474810E0
1.466752704E1,1.054370511E0,-2.855097462E-1,1.860740141E0,2.157676265E0
1.467755904E1,9.371892397E-1,-2.151722735E-1,2.211715752E0,2.411702583E0
1.468759104E1,7.773286296E-1,-2.314873208E-1,2.496152973E0,2.624615371E0
1.469762304E1,6.619144598E-1,-3.452582037E-1,2.576334672E0,2.682318833E0
1.470765504E1,4.403121128E-1,-4.826683563E-1,2.423669719E0,2.510182942E0
1.471768704E1,1.182879667E-1,-5.400988314E-1,2.058651434E0,2.131606089E0
1.472771904E1,-1.280994118E-1,-5.311984921E-1,1.571161464E0,1.663469159E0
1.473775004E1,-2.334911616E-1,-5.301028700E-1,9.435716218E-1,1.107183174E0
1.474778204E1,-1.215767696E-1,-5.316643690E-1,2.743338168E-1,6.104973015E-1
1.475781404E1,1.476479694E-1,-5.538973832E-1,-3.549599040E-1,6.742393992E-1
1.476784604E1,4.923433055E-1,-5.093015465E-1,-9.384190553E-1,1.175763717E0
1.477787804E1,8.261421360E-1,-3.408077417E-1,-1.356610749E0,1.624516381E0
1.478791004E1,1.129320048E0,-9.627996057E-2,-1.580241020E0,1.944683852E0
1.479794204E1,1.362594644E0,1.866032164E-1,-1.579646358E0,2.094461158E0
1.480797404E1,1.476567986E0,4.242599344E-1,-1.450582522E0,2.112921949E0
1.481800604E1,1.570080752E0,5.335294846E-1,-1.235363470E0,2.067832243E0
1.482803804E1,1.619178799E0,4.183429907E-1,-9.536545604E-1,1.925151387E0
1.483807004E1,1.621417405E0,9.184996381E-2,-6.771853405E-1,1.759548466E0
1.484810204E1,1.524593069E0,-2.687334998E-1,-3.617327338E-1,1.589796305E0
1.485813304E1,1.291518229E0,-5.472185473E-1,-1.092622411E-1,1.406913541E0
1.486816504E1,9.686409742E-1,-6.760251068E-1,1.179313231E-1,1.187090173E0
1.487819704E1,6.755500205E-1,-7.220380162E-1,2.812832326E-1,1.028020906E0
1.488822904E1,4.559010456E-1,-6.786717027E-1,4.227437514E-1,9.204093235E-1
1.489826104E1,3.163678421E-1,-5.503677115E-1,4.806247544E-1,7.962370149E-1
1.490829304E1,2.769324656E-1,-3.424646965E-1,3.786884898E-1,5.808430348E-1
1.491832504E1,3.209626938E-1,-7.992559075E-2,1.613854909E-1,3.680359052E-1
1.492835704E1,3.835440908E-1,1.019030817E-1,-1.252105218E-1,4.161345725E-1
1.493838904E1,3.949949124E-1,2.126689343E-1,-4.813065398E-1,6.579551973E-1
1.494842104E1,3.508107197E-1,3.504017070E-1,-8.694224954E-1,1.000872116E0
1.495845304E1,2.165734857E-1,4.838405769E-1,-1.224495251E0,1.334314205E0
1.496848404E1,7.656679477E-2,6.110711655E-1,-1.530950747E0,1.650175940E0
1.497851604E1,-5.605350602E-2,7.829173252E-1,-1.734287671E0,1.903642629E0
1.498854804E1,-1.564393494E-1,9.199943326E-1,-1.798098920E0,2.025838732E0
1.499858004E1,-1.446191665E-1,1.026919880E0,-1.757543217E0,2.040695299E0
1.500861204E1,-2.129140240E-2,1.116396898E0,-1.627835017E0,1.973991438E0
1.501864404E1,1.559444740E-1,1.108291487E0,-1.444763373E0,1.827558454E0
1.502867604E1,3.505990505E-1,1.054576333E0,-1.257549561E0,1.678237717E0
1.503870804E1,5.585451888E-1,1.013443656E0,-1.082314939E0,1.584438828E0
1.504874004E1,6.927775258E-1,1.033980832E0,-9.501900852E-1,1.565860230E0
1.505877204E1,7.245480066E-1,1.064275694E0,-8.665409875E-1,1.551949049E0
1.506880404E1,6.391161659E-1,1.053431448E0,-8.164940840E-1,1.478123770E0
1.507883504E1,4.986481023E-1,9.924126832E-1,-7.652566874E-1,1.348758934E0
1.508886704E1,3.297671753E-1,9.031295009E-1,-6.979488033E-1,1.188074837E0
1.509889904E1,1.624276109E-1,8.430899982E-1,-6.365401751E-1,1.068815638E0
1.510893104E1,5.487443782E-2,8.043171112E-1,-5.581605881E-1,9.805511009E-1
1.511896304E1,-1.890843362E-4,7.387315245E-1,-4.607594240E-1,8.706454777E-1
1.512899504E1,-4.926015149E-2,7.242093797E-1,-3.326077527E-1,7.984570779E-1
1.513902704E1,-8.377899723E-2,7.166084379E-1,-2.672440678E-1,7.693932450E-1
1.514905904E1,-1.323506939E-1,7.237337087E-1,-3.056649524E-1,7.967046193E-1
1.515909104E1,-2.161460542E-1,7.560210103E-1,-3.175599432E-1,8.480160389E-1
1.516912304E1,-2.228904703E-1,8.023786131E-1,-3.303437108E-1,8.958898189E-1
1.517915504E1,-2.147597890E-1,9.031727703E-1,-3.298081058E-1,9.851985620E-1
1.518918704E1,-1.647182942E-1,9.524709378E-1,-2.485364860E-1,9.980497927E-1
1.519921804E1,-1.039676422E-1,9.964805911E-1,-8.476474643E-2,1.005468996E0
1.520925004E1,-9.361821664E-3,9.899787797E-1,1.040073484E-1,9.954713238E-1
1.521928204E1,1.572804349E-1,8.277539210E-1,3.838393021E-1,9.258759629E-1
1.522931404E1,3.395419292E-1,6.324604265E-1,7.972064584E-1,1.072768871E0
1.523934604E1,3.439736436E-1,5.351007776E-1,1.303156673E0,1.450126900E0
1.524937804E1,3.145795077E-1,5.159463224E-1,1.801606665E0,1.900249312E0
1.525941004E1,2.897816489E-1,4.997644454E-1,2.210341657E0,2.284589273E0
1.526944204E1,2.060625308E-1,4.200543246E-1,2.489850844E0,2.533429420E0
1.527947404E1,1.857456857E-1,2.595571719E-1,2.539538144E0,2.559516628E0
1.528950604E1,2.276397615E-1,1.065315914E-1,2.420478893E0,2.433492739E0
1.529953804E1,2.559820381E-1,2.032638341E-3,2.227793257E0,2.242452615E0
1.530956904E1,2.384513547E-1,-9.765434861E-3,2.055286946E0,2.069096142E0
1.531960104E1,1.820300542E-1,3.098191068E-2,1.889507858E0,1.898508563E0
1.532963304E1,1.096487786E-1,4.934450671E-2,1.740845323E0,1.744992887E0
1.533966504E1,3.073147626E-2,6.600731716E-2,1.579034740E0,1.580712529E0
1.534969642E1,-8.215054767E-2,7.781416118E-2,1.380632281E0,1.385261438E0
1.535972842E1,-2.045035717E-1,1.341862902E-2,1.025142619E0,1.045427740E0
1.536976042E1,-2.195000719E-1,-1.254505500E-1,4.836799246E-1,5.457695407E-1
1.537979242E1,-1.799361663E-1,-2.927855828E-1,-1.608995873E-1,3.794589551E-1
1.538982442E1,-2.471136575E-1,-4.672298066E-1,-7.528383708E-1,9.198556759E-1
1.539985642E1,-3.866992483E-1,-5.163977274E-1,-1.185370361E0,1.349557637E0
1.540988842E1,-6.280666825E-1,-3.997840744E-1,-1.289611014E0,1.489090874E0
1.541992042E1,-8.954477944E-1,-2.472910291E-1,-1.185310135E0,1.505968035E0
1.542995142E1,-1.091717847E0,-1.579059590E-1,-8.845211756E-1,1.413916497E0
1.543998342E1,-1.107359368E0,-1.971743976E-1,-4.553349620E-1,1.213446513E0
1.545001542E1,-9.991741841E-1,-3.304666485E-1,2.127333999E-2,1.052620450E0
1.546004742E1,-8.545047864E-1,-4.530522090E-1,4.854931462E-1,1.082191448E0
1.547007942E1,-6.319618052E-1,-5.358101910E-1,9.198032749E-1,1.237944404E0
1.548011142E1,-4.006901370E-1,-6.309233397E-1,1.209348038E0,1.421667867E0
1.549014342E1,-1.877392573E-1,-7.180584012E-1,1.419634963E0,1.601941736E0
1.550017542E1,1.247384688E-2,-8.014332645E-1,1.471113265E0,1.675298515E0
1.551020742E1,1.275520028E-1,-8.160059877E-1,1.346154758E0,1.579325147E0
1.552023942E1,1.439067563E-1,-7.979600184E-1,1.059525416E0,1.334182691E0
1.553027142E1,1.777595220E-1,-7.217798616E-1,6.093354195E-1,9.611733817E-1
1.554030342E1,2.468741043E-1,-5.980027847E-1,1.047253865E-1,6.553789442E-1
1.555033442E1,3.158779185E-1,-4.778525895E-1,-3.250712764E-1,6.586298592E-1
1.556036642E1,4.100234992E-1,-3.610249284E-1,-6.605856800E-1,8.572232553E-1
1.557039842E1,4.801498143E-1,-2.503573090E-1,-9.093437755E-1,1.058361341E0
1.558043042E1,4.774360485E-1,-1.310793722E-1,-1.102628167E0,1.208683522E0
1.559046242E1,4.900000338E-1,-5.086741403E-2,-1.225917878E0,1.321197249E0
1.560049442E1,4.324293718E-1,9.083210975E-3,-1.305862180E0,1.375628474E0
1.561052642E1,2.927226339E-1,1.498056650E-2,-1.333977347E0,1.365798858E0
1.562055842E1,1.613815623E-1,-7.564396709E-3,-1.386802263E0,1.396181129E0
1.563059042E1,7.828524577E-2,-9.870801687E-2,-1.447781705E0,1.453252806E0
1.564062242E1,5.416361740E-2,-2.135663357E-1,-1.540346637E0,1.556024434E0
1.565065442E1,-4.722905718E-3,-2.794548082E-1,-1.556858590E0,1.581747756E0
1.566068542E1,-1.573962646E-2,-2.850204805E-1,-1.556387304E0,1.582348208E0
1.567071742E1,1.012885759E-2,-2.090186638E-1,-1.508152453E0,1.522601463E0
1.568074942E1,9.885469062E-2,-1.336933699E-1,-1.450397165E0,1.459896607E0
1.569078142E1,1.997710547E-1,-7.390719786E-2,-1.356666883E0,1.373286488E0
1.570081342E1,2.834197504E-1,-5.413951591E-2,-1.227061594E0,1.260530839E0
1.571084542E1,3.116052850E-1,-2.442367360E-2,-1.067108086E0,1.111941561E0
1.572087742E1,2.986570462E-1,4.657468066E-2,-9.277513951E-1,9.757499081E-1
1.573090942E1,2.929225539E-1,2.340348065E-2,-8.329633516E-1,8.832775841E-1
1.574094142E1,3.315843438E-1,-2.704366475E-2,-7.938507414E-1,8.607430142E-1
1.575097342E1,3.874502501E-1,-7.305291966E-2,-7.521185786E-1,8.491977282E-1
1.576100542E1,4.047267258E-1,-7.369011998E-2,-6.716328245E-1,7.876068863E-1
1.577103742E1,4.063554312E-1,1.285510361E-3,-5.546750629E-1,6.875978580E-1
1.578106842E1,4.530136905E-1,9.403901517E-2,-3.709917998E-1,5.930427098E-1
1.579110042E1,5.564245864E-1,1.660147315E-1,-1.769262207E-1,6.070190268E-1
1.580113242E1,7.529245441E-1,1.714750077E-1,3.771571040E-2,7.731245192E-1
1.581116442E1,9.420060298E-1,1.630335286E-1,2.418355769E-1,9.861235916E-1
1.582119642E1,1.155142888E0,7.263162777E-2,3.962821770E-1,1.223384652E0
1.583122842E1,1.382853053E0,-9.780052900E-2,5.572127545E-1,1.494099583E0
1.584126042E1,1.566130227E0,-3.040316789E-1,6.942890310E-1,1.739895517E0
1.585129242E1,1.670270307E0,-4.011442830E-1,8.356682736E-1,1.910251580E0
1.586132442E1,1.706218551E0,-4.153021462E-1,1.013275695E0,2.027408506E0
1.587135642E1,1.628800831E0,-3.260426451E-1,1.205571907E0,2.052486193E0
1.588138842E1,1.439318007E0,-2.361402427E-1,1.397059448E0,2.019696423E0
1.589142042E1,1.248969356E0,-1.933890563E-1,1.550012670E0,1.999965764E0
1.590145142E1,1.082647208E0,-2.285925105E-1,1.720009355E0,2.045192336E0
1.591148342E1,8.931903306E-1,-3.790401998E-1,1.853239918E0,2.091879211E0
1.592151542E1,7.693263495E-1,-6.188877234E-1,1.879691552E0,2.123234649E0
1.593154742E1,7.401043776E-1,-8.731815241E-1,1.890338747E0,2.209882586E0
1.594157942E1,7.427517776E-1,-9.992496863E-1,2.041623173E0,2.391318740E0
1.595161142E1,7.087376471E-1,-9.216412009E-1,2.311910716E0,2.587791088E0
1.596164342E1,6.220636386E-1,-6.377999577E-1,2.623043985E0,2.770218710E0
1.597167542E1,5.591867745E-1,-3.941733056E-1,2.802818384E0,2.885108895E0
1.598170742E1,5.878516529E-1,-2.152170778E-1,2.742890271E0,2.813420515E0
1.599173942E1,5.536868104E-1,-5.413286470E-2,2.422930046E0,2.485978571E0
1.600177142E1,4.981381155E-1,3.108306751E-3,1.805267606E0,1.872736600E0
1.601180342E1,5.592432732E-1,-1.153564285E-1,9.881917244E-1,1.141307596E0
1.602183442E1,7.204847764E-1,-3.232481146E-1,1.526152521E-1,8.042879284E-1
1.603186642E1,9.222811787E-1,-4.639579971E-1,-5.934719235E-1,1.190826822E0
1.604189842E1,1.076326952E0,-5.103237860E-1,-1.258863430E0,1.733103347E0
1.605193042E1,1.105782155E0,-4.234417628E-1,-1.698537794E0,2.070528372E0
1.606196242E1,9.657376854E-1,-2.104674576E-1,-1.927655092E0,2.166287142E0
1.607199442E1,7.201939505E-1,-1.521694019E-2,-1.908946926E0,2.040340474E0
1.608202642E1,6.221666957E-1,-2.755281106E-2,-1.719371424E0,1.828684950E0
1.609205842E1,6.181198378E-1,-2.628574866E-1,-1.428810999E0,1.578818249E0
1.610209042E1,6.312314149E-1,-5.914036171E-1,-1.069890776E0,1.375818887E0
1.611212242E1,6.144664975E-1,-8.494516227E-1,-7.027984840E-1,1.262165934E0
1.612215442E1,5.062740044E-1,-1.013782210E0,-3.903782433E-1,1.198525306E0
1.613218642E1,3.089586890E-1,-1.009650129E0,-7.699379683E-2,1.058667511E0
1.614221742E1,2.526983880E-2,-9.451227419E-1,1.896111703E-1,9.642862427E-1
1.615224942E1,-3.304699375E-1,-7.385789122E-1,3.957722998E-1,9.007468581E-1
1.616228142E1,-6.551718892E-1,-4.521900371E-1,5.314505070E-1,9.571654379E-1
1.617231342E1,-8.606213395E-1,-1.724104160E-1,5.594107229E-1,1.040833703E0
1.618234542E1,-9.092731704E-1,8.693099365E-2,5.066320002E-1,1.044514567E0
1.619237742E1,-8.139178008E-1,2.265667427E-1,3.271587324E-1,9.059953154E-1
